"Time (s)","Acceleration x (m/s^2)","Acceleration y (m/s^2)","Acceleration z (m/s^2)","Absolute acceleration (m/s^2)"
2.384339900E-2,6.187093258E0,-5.017145157E0,-5.428067207E0,9.639283278E0
2.624636800E-2,6.187093258E0,-5.017145157E0,-5.428067207E0,9.639283278E0
2.864933700E-2,6.206246376E0,-5.012356758E0,-5.430460930E0,9.650446635E0
3.105230600E-2,6.206246376E0,-5.012356758E0,-5.430460930E0,9.650446635E0
3.350126400E-2,6.251733780E0,-4.971657276E0,-5.504678249E0,9.700671830E0
3.599600400E-2,6.254127979E0,-5.005174637E0,-5.566924572E0,9.754821327E0
3.849032700E-2,6.282856941E0,-5.000386238E0,-5.624382973E0,9.803664504E0
4.098444100E-2,6.337921619E0,-4.986021996E0,-5.705782413E0,9.878543351E0
4.347860800E-2,6.335526943E0,-4.974051476E0,-5.760846615E0,9.902900759E0
4.597287900E-2,6.373833179E0,-4.971657276E0,-5.851822853E0,9.979326439E0
4.846709700E-2,6.404956341E0,-4.964474678E0,-5.961951256E0,1.006053365E1
5.096121200E-2,6.407350063E0,-4.983627796E0,-6.005044937E0,1.009709094E1
5.345537900E-2,6.445655823E0,-4.983627796E0,-6.031380177E0,1.013708892E1
5.594959700E-2,6.450444221E0,-4.971657276E0,-6.072079659E0,1.015853130E1
5.844376400E-2,6.457626343E0,-4.950110435E0,-6.067291737E0,1.014970740E1
6.093787900E-2,6.455232143E0,-4.966869354E0,-6.100809097E0,1.017642790E1
6.343204500E-2,6.460020542E0,-4.974051476E0,-6.057714939E0,1.015721240E1
6.592626400E-2,6.450444221E0,-4.966869354E0,-6.050532818E0,1.014332141E1
6.842043100E-2,6.450444221E0,-4.964474678E0,-6.012227058E0,1.011934354E1
7.091454500E-2,6.450444221E0,-4.966869354E0,-5.966739178E0,1.009356222E1
7.340866000E-2,6.421715260E0,-4.950110435E0,-5.899704456E0,1.002738914E1
7.590277400E-2,6.426503181E0,-4.954898834E0,-5.830275536E0,9.992150841E0
7.839688900E-2,6.431291103E0,-4.952504158E0,-5.760846615E0,9.953700639E0
8.089100400E-2,6.455232143E0,-4.930957794E0,-5.712965012E0,9.930877908E0
8.338511800E-2,6.452837944E0,-4.940533638E0,-5.672265053E0,9.910730598E0
8.587923300E-2,6.498326302E0,-4.947716236E0,-5.648324013E0,9.930342634E0
8.837334700E-2,6.495932102E0,-4.938139915E0,-5.602836132E0,9.898188340E0
9.086746200E-2,6.536631584E0,-4.959686756E0,-5.576500893E0,9.920857190E0
9.336157700E-2,6.558178425E0,-4.950110435E0,-5.566924572E0,9.924915454E0
9.585569100E-2,6.562966824E0,-4.974051476E0,-5.571712971E0,9.942721309E0
9.834980600E-2,6.589301586E0,-4.971657276E0,-5.586077690E0,9.966972230E0
1.008439200E-1,6.594089985E0,-5.000386238E0,-5.552560329E0,9.965782030E0
1.033380350E-1,6.622818947E0,-4.986021996E0,-5.559742451E0,9.981627235E0
1.058321490E-1,6.620425224E0,-4.997992516E0,-5.562136650E0,9.987358182E0
1.083262640E-1,6.577331066E0,-5.000386238E0,-5.535801411E0,9.945362927E0
1.108203790E-1,6.579725742E0,-4.986021996E0,-5.519042969E0,9.930409935E0
1.133144930E-1,6.515084743E0,-5.024327278E0,-5.504678249E0,9.899074525E0
1.158086080E-1,6.479173183E0,-5.029115677E0,-5.504678249E0,9.877913356E0
1.183027220E-1,6.450444221E0,-5.021933556E0,-5.504678249E0,9.855431493E0
1.207968370E-1,6.404956341E0,-5.021933556E0,-5.499890327E0,9.823038022E0
1.232683470E-1,6.414532661E0,-5.024327278E0,-5.516648769E0,9.839893674E0
1.257154830E-1,6.397774220E0,-5.012356758E0,-5.531013489E0,9.830938177E0
1.281603270E-1,6.369044781E0,-5.007568836E0,-5.588471413E0,9.842331522E0
1.306051180E-1,6.359467983E0,-5.005174637E0,-5.626777172E0,9.856735135E0
1.330507430E-1,6.359467983E0,-5.021933556E0,-5.669871330E0,9.889898410E0
1.354963680E-1,6.366650581E0,-5.014751434E0,-5.739300251E0,9.930837777E0
1.379412120E-1,6.342709541E0,-5.000386238E0,-5.768029213E0,9.924917524E0
1.403860560E-1,6.328345299E0,-5.005174637E0,-5.803940773E0,9.939087275E0
1.428316810E-1,6.321162701E0,-5.002780914E0,-5.837458134E0,9.952930836E0
1.452773060E-1,6.354680061E0,-4.971657276E0,-5.882946014E0,9.985408783E0
1.477221490E-1,6.333133221E0,-4.981234074E0,-5.899704456E0,9.986379822E0
1.501669410E-1,6.313980579E0,-4.981234074E0,-5.926039696E0,9.989844350E0
1.526125660E-1,6.294827461E0,-4.957293034E0,-5.926039696E0,9.965819257E0
1.550581910E-1,6.270886421E0,-4.962080956E0,-5.928433418E0,9.954525941E0
1.575030350E-1,6.258916378E0,-4.947716236E0,-5.875763416E0,9.908507754E0
1.599478270E-1,6.242157459E0,-4.938139915E0,-5.873369694E0,9.891725185E0
1.623934520E-1,6.189486980E0,-4.940533638E0,-5.806334496E0,9.819986863E0
1.648390770E-1,6.177516460E0,-4.928564072E0,-5.772817135E0,9.786616938E0
1.672839200E-1,6.139211178E0,-4.935745716E0,-5.727329731E0,9.739291838E0
1.697287640E-1,6.143999577E0,-4.933351994E0,-5.672265053E0,9.708825033E0
1.721743890E-1,6.155970097E0,-4.911804676E0,-5.631565571E0,9.681752103E0
1.746200140E-1,6.163152218E0,-4.911804676E0,-5.610018730E0,9.673809001E0
1.770648580E-1,6.175122738E0,-4.911804676E0,-5.607624531E0,9.680052628E0
1.795096490E-1,6.165545940E0,-4.911804676E0,-5.550166130E0,9.640753393E0
1.819552740E-1,6.187093258E0,-4.904623032E0,-5.547771931E0,9.649519338E0
1.844008990E-1,6.232581139E0,-4.899834156E0,-5.545378208E0,9.674950226E0
1.868457430E-1,6.242157459E0,-4.904623032E0,-5.557348728E0,9.690406685E0
1.892905870E-1,6.292433739E0,-4.921381474E0,-5.554954052E0,9.729965698E0
1.917362120E-1,6.311586380E0,-4.921381474E0,-5.583683491E0,9.758772442E0
1.941818370E-1,6.337921619E0,-4.916593552E0,-5.598048210E0,9.781630047E0
1.966266810E-1,6.366650581E0,-4.930957794E0,-5.626777172E0,9.823909901E0
1.990714720E-1,6.400167942E0,-4.954898834E0,-5.621989250E0,9.854944712E0
2.015170970E-1,6.421715260E0,-4.930957794E0,-5.645930290E0,9.870628171E0
2.039627220E-1,6.440867424E0,-4.950110435E0,-5.667477131E0,9.904981753E0
2.064075660E-1,6.448050022E0,-4.947716236E0,-5.669871330E0,9.909827745E0
2.088524100E-1,6.450444221E0,-4.950110435E0,-5.679447651E0,9.918061786E0
2.112980350E-1,6.450444221E0,-4.964474678E0,-5.650718212E0,9.908827166E0
2.137436600E-1,6.445655823E0,-4.952504158E0,-5.641141891E0,9.894253800E0
2.161885040E-1,6.457626343E0,-4.954898834E0,-5.590865612E0,9.874701957E0
2.186332950E-1,6.448050022E0,-4.940533638E0,-5.576500893E0,9.853100219E0
2.210789200E-1,6.428897381E0,-4.935745716E0,-5.499890327E0,9.794952829E0
2.235245450E-1,6.404956341E0,-4.942928314E0,-5.468766689E0,9.765419353E0
2.259693890E-1,6.414532661E0,-4.938139915E0,-5.466372490E0,9.767941610E0
2.284142330E-1,6.390591621E0,-4.916593552E0,-5.416096687E0,9.713220720E0
2.308598580E-1,6.371438503E0,-4.930957794E0,-5.382579327E0,9.689258670E0
2.333054830E-1,6.369044781E0,-4.935745716E0,-5.341879845E0,9.667574539E0
2.357503270E-1,6.352286339E0,-4.904623032E0,-5.320332527E0,9.628748985E0
2.381951180E-1,6.364256859E0,-4.933351994E0,-5.308362007E0,9.644710180E0
2.406407430E-1,6.354680061E0,-4.918987274E0,-5.305968285E0,9.629729691E0
2.430863680E-1,6.345103741E0,-4.921381474E0,-5.265268803E0,9.602259768E0
2.455312120E-1,6.335526943E0,-4.942928314E0,-5.262874126E0,9.605690295E0
2.479760560E-1,6.304404259E0,-4.942928314E0,-5.226962566E0,9.565520950E0
2.504216810E-1,6.294827461E0,-4.930957794E0,-5.229357243E0,9.554338005E0
2.528673060E-1,6.340315819E0,-4.947716236E0,-5.198233604E0,9.576070867E0
2.553121490E-1,6.328345299E0,-4.947716236E0,-5.219780445E0,9.579872550E0
2.577569410E-1,6.342709541E0,-4.957293034E0,-5.212598324E0,9.590406656E0
2.602025660E-1,6.337921619E0,-4.952504158E0,-5.226962566E0,9.592584926E0
2.626481910E-1,6.381015301E0,-4.957293034E0,-5.212598324E0,9.615783472E0
2.650930350E-1,6.385803699E0,-4.959686756E0,-5.207809925E0,9.617601875E0
2.675378270E-1,6.385803699E0,-4.969263554E0,-5.229357243E0,9.634222663E0
2.699834520E-1,6.395379543E0,-4.990810394E0,-5.217386723E0,9.645216022E0
2.724291290E-1,6.366650581E0,-4.978839874E0,-5.238933086E0,9.631692790E0
2.748739720E-1,6.378621101E0,-5.007568836E0,-5.250903606E0,9.660980359E0
2.773187640E-1,6.402562141E0,-5.009963036E0,-5.298785686E0,9.704105386E0
2.797643890E-1,6.414532661E0,-5.021933556E0,-5.279633045E0,9.707758289E0
2.822100140E-1,6.424108982E0,-5.009963036E0,-5.327515125E0,9.734029137E0
2.846548580E-1,6.412138462E0,-5.026721954E0,-5.363426685E0,9.754475848E0
2.870996490E-1,6.448050022E0,-5.053056717E0,-5.389761448E0,9.806133781E0
2.895452740E-1,6.460020542E0,-5.053056717E0,-5.430460930E0,9.836419750E0
2.919908990E-1,6.467202663E0,-5.048268318E0,-5.449614048E0,9.849264773E0
2.944357430E-1,6.476778984E0,-5.045874119E0,-5.468766689E0,9.864933894E0
2.968805870E-1,6.481567383E0,-5.048268318E0,-5.492707729E0,9.882589081E0
2.993262120E-1,6.460020542E0,-5.074604034E0,-5.499890327E0,9.885963035E0
3.017718370E-1,6.464808464E0,-5.048268318E0,-5.523830891E0,9.888956932E0
3.042166810E-1,6.493537426E0,-5.069815159E0,-5.531013489E0,9.922759911E0
3.066614720E-1,6.476778984E0,-5.076997757E0,-5.516648769E0,9.907471215E0
3.091070970E-1,6.486355782E0,-5.076997757E0,-5.499890327E0,9.904418770E0
3.115527220E-1,6.488749504E0,-5.053056717E0,-5.531013489E0,9.911072723E0
3.139975660E-1,6.481567383E0,-5.057844639E0,-5.519042969E0,9.902138326E0
3.164424100E-1,6.474385262E0,-5.057844639E0,-5.528619289E0,9.902781839E0
3.188880350E-1,6.512690544E0,-5.036297798E0,-5.521437168E0,9.912905832E0
3.213336600E-1,6.524661064E0,-5.033903599E0,-5.516648769E0,9.916894730E0
3.237785040E-1,6.512690544E0,-5.050662994E0,-5.511860847E0,9.914885012E0
3.262232950E-1,6.507902622E0,-5.050662994E0,-5.509466648E0,9.910409475E0
3.286689200E-1,6.510296822E0,-5.053056717E0,-5.490313530E0,9.902569846E0
3.311145450E-1,6.486355782E0,-5.043480396E0,-5.475949287E0,9.873982298E0
3.335593890E-1,6.505507946E0,-5.036297798E0,-5.461584568E0,9.874960007E0
3.360042330E-1,6.471991062E0,-5.050662994E0,-5.456796169E0,9.857610736E0
3.384498580E-1,6.479173183E0,-5.060238838E0,-5.420884609E0,9.847420585E0
3.408954830E-1,6.486355782E0,-5.062633514E0,-5.404126167E0,9.844168277E0
3.433403270E-1,6.467202663E0,-5.062633514E0,-5.399338245E0,9.828927809E0
3.457851180E-1,6.498326302E0,-5.072209358E0,-5.387367725E0,9.847806025E0
3.482307430E-1,6.491143703E0,-5.084179878E0,-5.408914089E0,9.861043719E0
3.506763680E-1,6.495932102E0,-5.086574554E0,-5.382579327E0,9.851016942E0
3.531212120E-1,6.488749504E0,-5.100938797E0,-5.401731968E0,9.864185470E0
3.555660040E-1,6.500720024E0,-5.105726719E0,-5.370608807E0,9.857547622E0
3.580116290E-1,6.500720024E0,-5.110515118E0,-5.406519890E0,9.879634756E0
3.604572540E-1,6.500720024E0,-5.112909317E0,-5.406519890E0,9.880873435E0
3.629020970E-1,6.500720024E0,-5.151214600E0,-5.365820408E0,9.878582962E0
3.653469410E-1,6.481567383E0,-5.146426201E0,-5.358638287E0,9.859585319E0
3.677925660E-1,6.476778984E0,-5.160791397E0,-5.375397205E0,9.873060770E0
3.702381910E-1,6.460020542E0,-5.170367241E0,-5.337091446E0,9.846273809E0
3.726830350E-1,6.445655823E0,-5.189520359E0,-5.329909325E0,9.843044953E0
3.751278270E-1,6.455232143E0,-5.165579319E0,-5.337091446E0,9.840618722E0
3.775734520E-1,6.438473701E0,-5.163185120E0,-5.325120926E0,9.821880526E0
3.800190770E-1,6.457626343E0,-5.175155640E0,-5.298785686E0,9.826510247E0
3.824639200E-1,6.443261623E0,-5.153608799E0,-5.315544605E0,9.814800989E0
3.849087640E-1,6.467202663E0,-5.163185120E0,-5.332303047E0,9.844625267E0
3.873543890E-1,6.469596863E0,-5.158396721E0,-5.344273567E0,9.850177676E0
3.898000140E-1,6.462414742E0,-5.158396721E0,-5.351456165E0,9.849362625E0
3.922448580E-1,6.471991062E0,-5.163185120E0,-5.351456165E0,9.858155607E0
3.946896490E-1,6.464808464E0,-5.156002998E0,-5.370608807E0,9.860099104E0
3.971352740E-1,6.481567383E0,-5.165579319E0,-5.392155647E0,9.887834341E0
3.995808990E-1,6.488749504E0,-5.165579319E0,-5.420884609E0,9.908232424E0
4.020257430E-1,6.464808464E0,-5.151214600E0,-5.437643528E0,9.894277511E0
4.044705350E-1,6.493537426E0,-5.160791397E0,-5.456796169E0,9.928565887E0
4.069161600E-1,6.460020542E0,-5.163185120E0,-5.461584568E0,9.910562647E0
4.093617850E-1,6.476778984E0,-5.156002998E0,-5.490313530E0,9.933608387E0
4.118066290E-1,6.471991062E0,-5.163185120E0,-5.495101929E0,9.936865406E0
4.142514720E-1,6.481567383E0,-5.163185120E0,-5.526225090E0,9.960339355E0
4.166970970E-1,6.455232143E0,-5.160791397E0,-5.528619289E0,9.943310370E0
4.191427220E-1,6.481567383E0,-5.170367241E0,-5.552560329E0,9.978694271E0
4.215875660E-1,6.445655823E0,-5.203884602E0,-5.557348728E0,9.975520980E0
4.240323580E-1,6.436079502E0,-5.189520359E0,-5.531013489E0,9.947178048E0
4.264779830E-1,6.443261623E0,-5.189520359E0,-5.528619289E0,9.950496126E0
4.289236080E-1,6.431291103E0,-5.203884602E0,-5.521437168E0,9.946265058E0
4.313684520E-1,6.395379543E0,-5.194308281E0,-5.499890327E0,9.906084576E0
4.338132950E-1,6.404956341E0,-5.203884602E0,-5.466372490E0,9.898742793E0
4.362589200E-1,6.366650581E0,-5.199096680E0,-5.447220325E0,9.860885112E0
4.387045450E-1,6.352286339E0,-5.220643997E0,-5.413702488E0,9.844533514E0
4.411493890E-1,6.342709541E0,-5.220643997E0,-5.392155647E0,9.826516707E0
4.435941810E-1,6.345103741E0,-5.220643997E0,-5.399338245E0,9.832004817E0
4.460398060E-1,6.330739021E0,-5.215855122E0,-5.380185127E0,9.809678548E0
4.484854310E-1,6.328345299E0,-5.218249321E0,-5.373002529E0,9.805469717E0
4.509302740E-1,6.323556423E0,-5.213461399E0,-5.349061966E0,9.786726190E0
4.533751180E-1,6.357074261E0,-5.220643997E0,-5.377790928E0,9.827927155E0
4.558207430E-1,6.359467983E0,-5.244585037E0,-5.394549847E0,9.851379258E0
4.582663680E-1,6.383409023E0,-5.239796162E0,-5.380185127E0,9.856458115E0
4.607112120E-1,6.400167942E0,-5.232614517E0,-5.404126167E0,9.876587670E0
4.631560040E-1,6.424108982E0,-5.256555557E0,-5.428067207E0,9.917886173E0
4.656016290E-1,6.416926861E0,-5.258949280E0,-5.435249805E0,9.918439308E0
4.680472540E-1,6.445655823E0,-5.261343479E0,-5.461584568E0,9.952744354E0
4.704920970E-1,6.433685303E0,-5.249372959E0,-5.461584568E0,9.938668373E0
4.729368890E-1,6.419320583E0,-5.270919800E0,-5.456796169E0,9.938153587E0
4.753825140E-1,6.421715260E0,-5.273313999E0,-5.485525608E0,9.956769486E0
4.778281390E-1,6.409744740E0,-5.275707722E0,-5.480737209E0,9.947683145E0
4.802729830E-1,6.397774220E0,-5.270919800E0,-5.492707729E0,9.944040864E0
4.827178270E-1,6.376227379E0,-5.268525600E0,-5.468766689E0,9.915696985E0
4.851634520E-1,6.349892139E0,-5.304437160E0,-5.452008247E0,9.908712212E0
4.876090770E-1,6.330739021E0,-5.309225559E0,-5.447220325E0,9.896380241E0
4.900539200E-1,6.328345299E0,-5.292466640E0,-5.420884609E0,9.871380213E0
4.924987120E-1,6.309192181E0,-5.266131401E0,-5.432855129E0,9.851596863E0
4.949443370E-1,6.313980579E0,-5.278101921E0,-5.420884609E0,9.854476170E0
4.973899620E-1,6.280463219E0,-5.275707722E0,-5.428067207E0,9.835711658E0
4.998348060E-1,6.287645340E0,-5.273313999E0,-5.413702488E0,9.831098569E0
5.022795970E-1,6.287645340E0,-5.275707722E0,-5.418490410E0,9.835019787E0
5.047252220E-1,6.278069019E0,-5.270919800E0,-5.430460930E0,9.832937102E0
5.071708990E-1,6.268492699E0,-5.263737202E0,-5.452008247E0,9.834903353E0
5.096157430E-1,6.270886421E0,-5.266131401E0,-5.478343010E0,9.852329601E0
5.120605350E-1,6.266098499E0,-5.261343479E0,-5.485525608E0,9.850721639E0
5.145061600E-1,6.268492699E0,-5.251766682E0,-5.483131409E0,9.845800325E0
5.169517850E-1,6.297221661E0,-5.254160881E0,-5.492707729E0,9.870716560E0
5.193966290E-1,6.297221661E0,-5.268525600E0,-5.509466648E0,9.887698690E0
5.218414200E-1,6.330739021E0,-5.254160881E0,-5.540589809E0,9.918800258E0
5.242870450E-1,6.311586380E0,-5.249372959E0,-5.540589809E0,9.904048391E0
5.267326700E-1,6.330739021E0,-5.232614517E0,-5.542983532E0,9.908742487E0
5.291775140E-1,6.333133221E0,-5.225431919E0,-5.545378208E0,9.907821890E0
5.316223580E-1,6.347497463E0,-5.232614517E0,-5.521437168E0,9.907433933E0
5.340679830E-1,6.333133221E0,-5.239796162E0,-5.490313530E0,9.884714607E0
5.365136080E-1,6.325951099E0,-5.223037720E0,-5.437643528E0,9.842039802E0
5.389584520E-1,6.337921619E0,-5.223037720E0,-5.418490410E0,9.839177394E0
5.414032430E-1,6.292433739E0,-5.211067200E0,-5.375397205E0,9.779817934E0
5.438488680E-1,6.304404259E0,-5.208673477E0,-5.322726727E0,9.757418319E0
5.462944930E-1,6.280463219E0,-5.199096680E0,-5.262874126E0,9.704260332E0
5.487393370E-1,6.287645340E0,-5.194308281E0,-5.243721485E0,9.695975322E0
5.511841810E-1,6.282856941E0,-5.194308281E0,-5.205416203E0,9.672201802E0
5.536298060E-1,6.268492699E0,-5.182337761E0,-5.176686764E0,9.640991195E0
5.560754310E-1,6.266098499E0,-5.175155640E0,-5.157534122E0,9.625299191E0
5.585202740E-1,6.270886421E0,-5.151214600E0,-5.143169403E0,9.607872807E0
5.609650660E-1,6.294827461E0,-5.175155640E0,-5.138381004E0,9.633797175E0
5.634106910E-1,6.299615860E0,-5.179944038E0,-5.147957802E0,9.644607289E0
5.658563160E-1,6.294827461E0,-5.184732437E0,-5.124016762E0,9.631295395E0
5.683011600E-1,6.316374779E0,-5.182337761E0,-5.152745724E0,9.659399749E0
5.707459520E-1,6.321162701E0,-5.196702957E0,-5.162322044E0,9.675349524E0
5.731915770E-1,6.318768501E0,-5.194308281E0,-5.169504642E0,9.676334644E0
5.756372020E-1,6.313980579E0,-5.187126160E0,-5.157534122E0,9.662959525E0
5.780820450E-1,6.297221661E0,-5.215855122E0,-5.138381004E0,9.657282467E0
5.805268890E-1,6.292433739E0,-5.215855122E0,-5.152745724E0,9.661814296E0
5.829725140E-1,6.285251141E0,-5.213461399E0,-5.155139923E0,9.657123241E0
5.854181390E-1,6.266098499E0,-5.215855122E0,-5.155139923E0,9.645963025E0
5.878629830E-1,6.256522179E0,-5.232614517E0,-5.162322044E0,9.652662500E0
5.903077740E-1,6.242157459E0,-5.220643997E0,-5.162322044E0,9.636867872E0
5.927533990E-1,6.227793217E0,-5.203884602E0,-5.157534122E0,9.615923332E0
5.951990240E-1,6.237369061E0,-5.213461399E0,-5.174292564E0,9.636298880E0
5.976438680E-1,6.266098499E0,-5.194308281E0,-5.181475163E0,9.648446185E0
6.000886600E-1,6.254127979E0,-5.194308281E0,-5.191051006E0,9.645826343E0
6.025342850E-1,6.256522179E0,-5.211067200E0,-5.212598324E0,9.668012847E0
6.049799100E-1,6.275674820E0,-5.215855122E0,-5.248509407E0,9.702375487E0
6.074247540E-1,6.309192181E0,-5.191914558E0,-5.274844646E0,9.725526659E0
6.098695970E-1,6.302010059E0,-5.172761917E0,-5.305968285E0,9.727594568E0
6.123152220E-1,6.340315819E0,-5.182337761E0,-5.358638287E0,9.786277823E0
6.147608470E-1,6.354680061E0,-5.175155640E0,-5.387367725E0,9.807544320E0
6.172056910E-1,6.361862659E0,-5.165579319E0,-5.408914089E0,9.819004930E0
6.196504830E-1,6.381015301E0,-5.170367241E0,-5.440037727E0,9.851094566E0
6.220961080E-1,6.431291103E0,-5.153608799E0,-5.447220325E0,9.878937098E0
6.245417330E-1,6.431291103E0,-5.153608799E0,-5.463978767E0,9.888187543E0
6.269865770E-1,6.460020542E0,-5.136850357E0,-5.511860847E0,9.924701859E0
6.294314200E-1,6.493537426E0,-5.117697239E0,-5.502284050E0,9.931363607E0
6.318770450E-1,6.512690544E0,-5.129667759E0,-5.507072449E0,9.952712012E0
6.343226700E-1,6.548602104E0,-5.112909317E0,-5.507072449E0,9.967641554E0
6.367675140E-1,6.539025784E0,-5.096150398E0,-5.485525608E0,9.940855007E0
6.392123060E-1,6.539025784E0,-5.098544598E0,-5.468766689E0,9.932845731E0
6.416579310E-1,6.548602104E0,-5.076997757E0,-5.463978767E0,9.925480327E0
6.441035560E-1,6.546208382E0,-5.060238838E0,-5.418490410E0,9.890343755E0
6.465483990E-1,6.562966824E0,-5.062633514E0,-5.382579327E0,9.883063889E0
6.489931910E-1,6.548602104E0,-5.055450916E0,-5.341879845E0,9.847713123E0
6.514388160E-1,6.565360546E0,-5.041086197E0,-5.341879845E0,9.851506962E0
6.538844410E-1,6.565360546E0,-5.060238838E0,-5.315544605E0,9.847080311E0
6.563292850E-1,6.555784702E0,-5.045874119E0,-5.308362007E0,9.829438737E0
6.587741290E-1,6.572543144E0,-5.057844639E0,-5.298785686E0,9.841607873E0
6.612197540E-1,6.562966824E0,-5.062633514E0,-5.305968285E0,9.841549221E0
6.636653790E-1,6.560572624E0,-5.055450916E0,-5.293997765E0,9.829807193E0
6.661102220E-1,6.565360546E0,-5.093756199E0,-5.282027245E0,9.846325362E0
6.685550140E-1,6.562966824E0,-5.079391956E0,-5.308362007E0,9.851470112E0
6.710006390E-1,6.560572624E0,-5.084179878E0,-5.308362007E0,9.852345172E0
6.734462640E-1,6.562966824E0,-5.096150398E0,-5.298785686E0,9.854968907E0
6.758911080E-1,6.553390026E0,-5.117697239E0,-5.308362007E0,9.864910190E0
6.783359520E-1,6.553390026E0,-5.134455681E0,-5.325120926E0,9.882634712E0
6.807815770E-1,6.541419506E0,-5.136850357E0,-5.337091446E0,9.882405873E0
6.832271490E-1,6.522267342E0,-5.158396721E0,-5.329909325E0,9.877092761E0
6.856719930E-1,6.531843662E0,-5.179944038E0,-5.339485645E0,9.899843879E0
6.881168370E-1,6.548602104E0,-5.182337761E0,-5.365820408E0,9.926371081E0
6.905624620E-1,6.567755222E0,-5.196702957E0,-5.363426685E0,9.945223783E0
6.930080870E-1,6.550996304E0,-5.172761917E0,-5.363426685E0,9.921661364E0
6.954529310E-1,6.558178425E0,-5.175155640E0,-5.365820408E0,9.928946006E0
6.978977220E-1,6.572543144E0,-5.184732437E0,-5.394549847E0,9.958962892E0
7.003433470E-1,6.598878384E0,-5.177549839E0,-5.384973049E0,9.967454690E0
7.027889720E-1,6.584513664E0,-5.189520359E0,-5.387367725E0,9.965474036E0
7.052338160E-1,6.584513664E0,-5.184732437E0,-5.384973049E0,9.961686874E0
7.076786600E-1,6.594089985E0,-5.175155640E0,-5.358638287E0,9.948832239E0
7.101242850E-1,6.596484184E0,-5.160791397E0,-5.327515125E0,9.926217248E0
7.125699100E-1,6.570148945E0,-5.160791397E0,-5.298785686E0,9.893318693E0
7.150147540E-1,6.558178425E0,-5.134455681E0,-5.265268803E0,9.853699557E0
7.174595450E-1,6.589301586E0,-5.136850357E0,-5.224568844E0,9.854047219E0
7.199051700E-1,6.543814182E0,-5.117697239E0,-5.224568844E0,9.813686804E0
7.223507950E-1,6.550996304E0,-5.100938797E0,-5.212598324E0,9.803382603E0
7.247956390E-1,6.541419506E0,-5.105726719E0,-5.183868885E0,9.784227670E0
7.272404310E-1,6.539025784E0,-5.096150398E0,-5.167109966E0,9.768757981E0
7.296860560E-1,6.548602104E0,-5.067421436E0,-5.176686764E0,9.765297506E0
7.321316810E-1,6.560572624E0,-5.072209358E0,-5.169504642E0,9.772011010E0
7.345765240E-1,6.558178425E0,-5.043480396E0,-5.176686764E0,9.759328082E0
7.370213680E-1,6.579725742E0,-5.048268318E0,-5.188657284E0,9.782636059E0
7.394669930E-1,6.591696262E0,-5.060238838E0,-5.214992046E0,9.810841899E0
7.419126180E-1,6.608454704E0,-5.048268318E0,-5.250903606E0,9.835073730E0
7.443574620E-1,6.601272106E0,-5.050662994E0,-5.267662525E0,9.840439959E0
7.468022540E-1,6.615637302E0,-5.031509876E0,-5.305968285E0,9.860834041E0
7.492478790E-1,6.610848427E0,-5.053056717E0,-5.329909325E0,9.881529867E0
7.516935040E-1,6.618031025E0,-5.048268318E0,-5.363426685E0,9.902004518E0
7.541383470E-1,6.610848427E0,-5.038692474E0,-5.387367725E0,9.905325324E0
7.565831910E-1,6.613242626E0,-5.036297798E0,-5.423279285E0,9.925282452E0
7.590288160E-1,6.591696262E0,-5.036297798E0,-5.435249805E0,9.917494420E0
7.614743890E-1,6.601272106E0,-5.036297798E0,-5.440037727E0,9.926484746E0
7.639192330E-1,6.594089985E0,-5.033903599E0,-5.440037727E0,9.920494879E0
7.663640770E-1,6.606060505E0,-5.024327278E0,-5.430460930E0,9.918357016E0
7.688097020E-1,6.589301586E0,-5.021933556E0,-5.452008247E0,9.917817601E0
7.712553270E-1,6.596484184E0,-5.009963036E0,-5.459190845E0,9.920488793E0
7.737001700E-1,6.586907864E0,-4.995598316E0,-5.430460930E0,9.891069894E0
7.761449620E-1,6.577331066E0,-5.012356758E0,-5.440037727E0,9.898434962E0
7.785905870E-1,6.582119465E0,-4.997992516E0,-5.425673008E0,9.886463140E0
7.810362120E-1,6.541419506E0,-5.000386238E0,-5.425673008E0,9.860626718E0
7.834810560E-1,6.567755222E0,-4.988415718E0,-5.423279285E0,9.870747603E0
7.859258990E-1,6.536631584E0,-4.997992516E0,-5.375397205E0,9.828650811E0
7.883715240E-1,6.529448986E0,-4.986021996E0,-5.368214607E0,9.813859968E0
7.908171490E-1,6.510296822E0,-4.986021996E0,-5.375397205E0,9.805063751E0
7.932619930E-1,6.493537426E0,-4.993204117E0,-5.325120926E0,9.770108931E0
7.957067850E-1,6.495932102E0,-5.017145157E0,-5.341879845E0,9.793087341E0
7.981524100E-1,6.493537426E0,-5.014751434E0,-5.327515125E0,9.782442316E0
8.005980350E-1,6.486355782E0,-5.002780914E0,-5.310756207E0,9.762415669E0
8.030428790E-1,6.495932102E0,-5.000386238E0,-5.327515125E0,9.776677033E0
8.054876700E-1,6.488749504E0,-5.005174637E0,-5.303574085E0,9.761328872E0
8.079332950E-1,6.457626343E0,-4.993204117E0,-5.282027245E0,9.722799862E0
8.103789200E-1,6.464808464E0,-5.005174637E0,-5.262874126E0,9.723341282E0
8.128237640E-1,6.452837944E0,-5.002780914E0,-5.248509407E0,9.706378594E0
8.152686080E-1,6.450444221E0,-5.014751434E0,-5.212598324E0,9.691601719E0
8.177142330E-1,6.457626343E0,-4.993204117E0,-5.203021526E0,9.680106319E0
8.201598580E-1,6.474385262E0,-5.033903599E0,-5.171898842E0,9.695689124E0
8.226047020E-1,6.474385262E0,-5.005174637E0,-5.186263084E0,9.688486076E0
8.250494930E-1,6.522267342E0,-4.978839874E0,-5.188657284E0,9.708294504E0
8.274951180E-1,6.524661064E0,-4.990810394E0,-5.167109966E0,9.704556445E0
8.299407430E-1,6.548602104E0,-4.993204117E0,-5.186263084E0,9.732091330E0
8.323855870E-1,6.567755222E0,-4.966869354E0,-5.183868885E0,9.730246475E0
8.348303790E-1,6.596484184E0,-4.954898834E0,-5.181475163E0,9.742294951E0
8.372760040E-1,6.615637302E0,-4.957293034E0,-5.171898842E0,9.751407528E0
8.397216290E-1,6.641972065E0,-4.954898834E0,-5.205416203E0,9.785865992E0
8.421664720E-1,6.639577866E0,-4.940533638E0,-5.207809925E0,9.778248876E0
8.446113160E-1,6.675488949E0,-4.916593552E0,-5.191051006E0,9.781720473E0
8.470569410E-1,6.663518429E0,-4.935745716E0,-5.159928322E0,9.766725342E0
8.495025660E-1,6.687459469E0,-4.909410954E0,-5.164716244E0,9.772344854E0
8.519474100E-1,6.661124706E0,-4.904623032E0,-5.164716244E0,9.751933312E0
8.543922020E-1,6.653942585E0,-4.875893116E0,-5.143169403E0,9.721187022E0
8.568378270E-1,6.634789467E0,-4.880681992E0,-5.140775204E0,9.709225390E0
8.592834520E-1,6.627607346E0,-4.878287315E0,-5.114439964E0,9.689187913E0
8.617282950E-1,6.613242626E0,-4.890257835E0,-5.112046242E0,9.684142528E0
8.641730870E-1,6.591696262E0,-4.871105194E0,-5.090498924E0,9.648383529E0
8.666187120E-1,6.586907864E0,-4.887863636E0,-5.073740482E0,9.644760682E0
8.690643370E-1,6.579725742E0,-4.890257835E0,-5.047405720E0,9.627238287E0
8.715091810E-1,6.567755222E0,-4.895046234E0,-5.040223122E0,9.617730263E0
8.739540240E-1,6.565360546E0,-4.892652512E0,-5.021070004E0,9.604850425E0
8.763996490E-1,6.543814182E0,-4.904623032E0,-5.030646801E0,9.601262332E0
8.788452740E-1,6.531843662E0,-4.902228355E0,-5.001917839E0,9.576847422E0
8.812901180E-1,6.512690544E0,-4.907016754E0,-5.021070004E0,9.576277749E0
8.837349100E-1,6.529448986E0,-4.916593552E0,-5.001917839E0,9.582576808E0
8.861805350E-1,6.515084743E0,-4.930957794E0,-5.028252602E0,9.593956338E0
8.886261600E-1,6.539025784E0,-4.954898834E0,-5.028252602E0,9.622536302E0
8.910710040E-1,6.550996304E0,-4.940533638E0,-5.056981564E0,9.638334282E0
8.935157950E-1,6.541419506E0,-4.942928314E0,-5.064164162E0,9.636828738E0
8.959614200E-1,6.586907864E0,-4.942928314E0,-5.080922604E0,9.676552590E0
8.984070450E-1,6.608454704E0,-4.930957794E0,-5.116834164E0,9.704020311E0
9.008518890E-1,6.613242626E0,-4.933351994E0,-5.128804684E0,9.714812268E0
9.032967330E-1,6.634789467E0,-4.909410954E0,-5.138381004E0,9.722433159E0
9.057423580E-1,6.670701027E0,-4.909410954E0,-5.167109966E0,9.762151070E0
9.081879830E-1,6.663518429E0,-4.885469913E0,-5.171898842E0,9.747760346E0
9.106328270E-1,6.649154186E0,-4.885469913E0,-5.181475163E0,9.743036104E0
9.130776180E-1,6.661124706E0,-4.885469913E0,-5.157534122E0,9.738508965E0
9.155232430E-1,6.697036266E0,-4.866316795E0,-5.150351524E0,9.749741265E0
9.179688680E-1,6.687459469E0,-4.856740952E0,-5.169504642E0,9.748529380E0
9.204137120E-1,6.694642067E0,-4.859134674E0,-5.152745724E0,9.745779121E0
9.228585040E-1,6.706612587E0,-4.849558353E0,-5.143169403E0,9.744180834E0
9.253041290E-1,6.711400509E0,-4.830405235E0,-5.135987282E0,9.734170580E0
9.277497540E-1,6.725765705E0,-4.818434715E0,-5.131198883E0,9.735627325E0
9.301945970E-1,6.730553627E0,-4.837587833E0,-5.155139923E0,9.761048909E0
9.326394410E-1,6.713795185E0,-4.811253071E0,-5.140775204E0,9.728862811E0
9.350850660E-1,6.718583107E0,-4.804070473E0,-5.138381004E0,9.727353773E0
9.375306910E-1,6.742524147E0,-4.792099953E0,-5.126410484E0,9.731697605E0
9.399755350E-1,6.747312069E0,-4.799282551E0,-5.140775204E0,9.746122452E0
9.424203270E-1,6.732947826E0,-4.784917831E0,-5.147957802E0,9.732907819E0
9.448659520E-1,6.752100468E0,-4.756188393E0,-5.140775204E0,9.728296791E0
9.473115770E-1,6.761677265E0,-4.777735233E0,-5.121622562E0,9.735401947E0
9.497564200E-1,6.752100468E0,-4.780129433E0,-5.114439964E0,9.726150023E0
9.522012120E-1,6.756888866E0,-4.760976791E0,-5.109652042E0,9.717560967E0
9.546468370E-1,6.771253109E0,-4.756188393E0,-5.124016762E0,9.732766537E0
9.570924620E-1,6.788012028E0,-4.760976791E0,-5.102469444E0,9.735461043E0
9.595373060E-1,6.788012028E0,-4.741823673E0,-5.100075722E0,9.724853284E0
9.619821490E-1,6.816740990E0,-4.746612072E0,-5.097681522E0,9.746006402E0
9.644277740E-1,6.816740990E0,-4.758582115E0,-5.076134682E0,9.740595709E0
9.668733990E-1,6.821529388E0,-4.751400471E0,-5.088105202E0,9.746685805E0
9.693182430E-1,6.845469952E0,-4.765764713E0,-5.088105202E0,9.770454785E0
9.717630350E-1,6.828711510E0,-4.753794193E0,-5.083317280E0,9.750383309E0
9.742086600E-1,6.819135189E0,-4.741823673E0,-5.045011044E0,9.717902701E0
9.766542850E-1,6.816740990E0,-4.753794193E0,-5.033040524E0,9.715864031E0
9.790991290E-1,6.799982548E0,-4.753794193E0,-5.001917839E0,9.688008255E0
9.815439200E-1,6.795194149E0,-4.741823673E0,-5.001917839E0,9.678777678E0
9.839895450E-1,6.792799950E0,-4.744217873E0,-5.001917839E0,9.678270323E0
9.864352220E-1,6.807164669E0,-4.737035751E0,-5.009099483E0,9.688553874E0
9.888800660E-1,6.804770470E0,-4.729853153E0,-5.033040524E0,9.695767577E0
9.913248580E-1,6.799982548E0,-4.710700989E0,-5.100075722E0,9.718088229E0
9.937704830E-1,6.819135189E0,-4.722671509E0,-5.138381004E0,9.757417192E0
9.962161080E-1,6.826317787E0,-4.713094711E0,-5.169504642E0,9.774234217E0
9.986609520E-1,6.816740990E0,-4.689153671E0,-5.226962566E0,9.786585592E0
1.001105743E0,6.807164669E0,-4.698730469E0,-5.284420967E0,9.815328003E0
1.003551368E0,6.826317787E0,-4.670001030E0,-5.351456165E0,9.851172887E0
1.005996993E0,6.826317787E0,-4.653242111E0,-5.387367725E0,9.862809320E0
1.008441837E0,6.795194149E0,-4.648453712E0,-5.430460930E0,9.862691892E0
1.010886629E0,6.807164669E0,-4.643665791E0,-5.475949287E0,9.893793176E0
1.013332254E0,6.778435707E0,-4.631695271E0,-5.521437168E0,9.893738430E0
1.015777879E0,6.764070988E0,-4.638877869E0,-5.569319248E0,9.914089020E0
1.018222722E0,6.725765705E0,-4.610148430E0,-5.617201328E0,9.901633382E0
1.020667566E0,6.718583107E0,-4.590995789E0,-5.653112411E0,9.908293558E0
1.023113191E0,6.701824665E0,-4.588601112E0,-5.691418171E0,9.917759566E0
1.025558816E0,6.682671547E0,-4.571842670E0,-5.744088173E0,9.927456540E0
1.028003660E0,6.620425224E0,-4.545507908E0,-5.758452415E0,9.881874646E0
1.030448452E0,6.606060505E0,-4.526354790E0,-5.811122894E0,9.894294941E0
1.032894077E0,6.586907864E0,-4.514384270E0,-5.823093414E0,9.883088457E0
1.035339702E0,6.562966824E0,-4.490443230E0,-5.849428654E0,9.871799709E0
1.037784545E0,6.548602104E0,-4.480867386E0,-5.873369694E0,9.872124068E0
1.040229337E0,6.524661064E0,-4.476078987E0,-5.882946014E0,9.859794060E0
1.042674962E0,6.495932102E0,-4.461714268E0,-5.894916534E0,9.841446491E0
1.045120587E0,6.500720024E0,-4.456926346E0,-5.892522335E0,9.841004662E0
1.047565431E0,6.464808464E0,-4.440167427E0,-5.892522335E0,9.809722459E0
1.050010274E0,6.433685303E0,-4.416226387E0,-5.892522335E0,9.778403834E0
1.052455899E0,6.402562141E0,-4.409044266E0,-5.892522335E0,9.754706186E0
1.054901524E0,6.395379543E0,-4.394679546E0,-5.914069176E0,9.756551749E0
1.057346368E0,6.366650581E0,-4.363556385E0,-5.882946014E0,9.704839914E0
1.059791160E0,6.359467983E0,-4.365950108E0,-5.894916534E0,9.708470236E0
1.062236785E0,6.325951099E0,-4.365950108E0,-5.899704456E0,9.689462850E0
1.064682410E0,6.294827461E0,-4.349191666E0,-5.904492855E0,9.664541209E0
1.067127254E0,6.254127979E0,-4.337221146E0,-5.928433418E0,9.647379273E0
1.069572045E0,6.256522179E0,-4.342009544E0,-5.952374458E0,9.665809762E0
1.072017670E0,6.227793217E0,-4.353980064E0,-5.997862816E0,9.680749408E0
1.074463295E0,6.213428020E0,-4.351585865E0,-5.997862816E0,9.670436684E0
1.076908139E0,6.187093258E0,-4.339615345E0,-6.000256538E0,9.649635374E0
1.079352983E0,6.120058537E0,-4.351585865E0,-5.990680218E0,9.606230556E0
1.081798608E0,6.103299618E0,-4.385103226E0,-5.993074417E0,9.612301363E0
1.084244233E0,6.029082775E0,-4.397073746E0,-5.926039696E0,9.529010605E0
1.086689077E0,5.923742294E0,-4.435379505E0,-5.875763416E0,9.449228003E0
1.089133868E0,5.842343330E0,-4.490443230E0,-5.823093414E0,9.391776877E0
1.091579493E0,5.808825493E0,-4.516778946E0,-5.803940773E0,9.371738054E0
1.094025118E0,5.768126011E0,-4.538325310E0,-5.760846615E0,9.330328398E0
1.096469962E0,5.701091290E0,-4.614936829E0,-5.712965012E0,9.297206734E0
1.098914754E0,5.655602932E0,-4.660424232E0,-5.636353493E0,9.245208448E0
1.101360379E0,5.559839249E0,-4.703518391E0,-5.571712971E0,9.169453809E0
1.103806004E0,5.485621929E0,-4.746612072E0,-5.521437168E0,9.116394162E0
1.106250847E0,5.385070324E0,-4.765764713E0,-5.475949287E0,9.038667838E0
1.108695691E0,5.315640926E0,-4.801676273E0,-5.444825649E0,8.997680804E0
1.111141316E0,5.258183002E0,-4.830405235E0,-5.447220325E0,8.980730065E0
1.113586941E0,5.219877243E0,-4.842375755E0,-5.447220325E0,8.964816265E0
1.116031785E0,5.193542004E0,-4.851952553E0,-5.483131409E0,8.976583546E0
1.118476577E0,5.162419319E0,-4.851952553E0,-5.516648769E0,8.979166467E0
1.120922202E0,5.186360359E0,-4.868711472E0,-5.562136650E0,9.029952895E0
1.123367827E0,5.207906723E0,-4.883075714E0,-5.645930290E0,9.101826724E0
1.125812670E0,5.231847763E0,-4.907016754E0,-5.760846615E0,9.199912943E0
1.128257462E0,5.277335644E0,-4.933351994E0,-5.844640255E0,9.292365312E0
1.130703087E0,5.318035126E0,-4.964474678E0,-5.947586536E0,9.396876717E0
1.133148712E0,5.370705605E0,-4.969263554E0,-6.067291737E0,9.505266328E0
1.135593556E0,5.420981884E0,-4.993204117E0,-6.151084900E0,9.599738402E0
1.138038399E0,5.509562969E0,-4.988415718E0,-6.287548542E0,9.735134419E0
1.140484024E0,5.545474529E0,-5.014751434E0,-6.368947983E0,9.821584297E0
1.142929597E0,5.641238689E0,-5.012356758E0,-6.428800583E0,9.913464135E0
1.145374441E0,5.701091290E0,-5.012356758E0,-6.474287987E0,9.977102139E0
1.147819285E0,5.804037571E0,-5.024327278E0,-6.536534786E0,1.008250979E1
1.150264910E0,5.906983852E0,-5.029115677E0,-6.529352665E0,1.013986730E1
1.152710535E0,5.988383293E0,-5.000386238E0,-6.548505306E0,1.018565259E1
1.155155379E0,6.112875938E0,-4.988415718E0,-6.543716908E0,1.025045241E1
1.157600170E0,6.220610619E0,-4.976445198E0,-6.531746387E0,1.030168501E1
1.160045795E0,6.318768501E0,-4.950110435E0,-6.526958466E0,1.034560851E1
1.162491420E0,6.392985821E0,-4.916593552E0,-6.474287987E0,1.034212574E1
1.164936264E0,6.469596863E0,-4.907016754E0,-6.443165302E0,1.036575497E1
1.167381056E0,6.507902622E0,-4.873499393E0,-6.347401142E0,1.031471251E1
1.169826681E0,6.517478466E0,-4.835193634E0,-6.254031181E0,1.024546383E1
1.172272306E0,6.505507946E0,-4.799282551E0,-6.160661221E0,1.016407858E1
1.174717149E0,6.474385262E0,-4.782523155E0,-6.026591778E0,1.005534687E1
1.177161993E0,6.419320583E0,-4.758582115E0,-5.892522335E0,9.928423841E0
1.179607618E0,6.352286339E0,-4.734642029E0,-5.789576054E0,9.812622878E0
1.182053243E0,6.270886421E0,-4.696335793E0,-5.715359211E0,9.697675871E0
1.184498087E0,6.215822697E0,-4.662818909E0,-5.602836132E0,9.579671429E0
1.186942879E0,6.134423256E0,-4.646059990E0,-5.542983532E0,9.483759199E0
1.189388504E0,6.060205936E0,-4.619724751E0,-5.514254570E0,9.406112705E0
1.191834129E0,6.017112255E0,-4.605360508E0,-5.502284050E0,9.364300031E0
1.194278972E0,5.962048054E0,-4.583813190E0,-5.478343010E0,9.304278720E0
1.196723764E0,5.974018574E0,-4.557478428E0,-5.499890327E0,9.311729225E0
1.199169389E0,5.962048054E0,-4.538325310E0,-5.485525608E0,9.286194312E0
1.201615014E0,5.918954372E0,-4.521566868E0,-5.511860847E0,9.266023840E0
1.204059858E0,5.895013332E0,-4.516778946E0,-5.509466648E0,9.246983129E0
1.206504702E0,5.921348095E0,-4.509596348E0,-5.528619289E0,9.271701771E0
1.208950327E0,5.890224934E0,-4.514384270E0,-5.574107170E0,9.281437704E0
1.211395952E0,5.909377575E0,-4.521566868E0,-5.590865612E0,9.307152548E0
1.213840795E0,5.897407055E0,-4.531143188E0,-5.667477131E0,9.350452695E0
1.216285587E0,5.938107014E0,-4.557478428E0,-5.739300251E0,9.432459483E0
1.218731212E0,5.954865456E0,-4.567054749E0,-5.866187096E0,9.525259194E0
1.221176837E0,6.012324333E0,-4.602966309E0,-5.993074417E0,9.656722202E0
1.223621681E0,6.069782257E0,-4.624512672E0,-6.139114857E0,9.793727857E0
1.226066472E0,6.136816978E0,-4.646059990E0,-6.285154819E0,9.937281679E0
1.228512097E0,6.194275856E0,-4.672394753E0,-6.431194782E0,1.007772754E1
1.230957722E0,6.249339581E0,-4.681971550E0,-6.584416389E0,1.021418827E1
1.233402566E0,6.323556423E0,-4.725065231E0,-6.704121590E0,1.035658503E1
1.235847410E0,6.378621101E0,-4.701124191E0,-6.811856270E0,1.044934264E1
1.238293035E0,6.404956341E0,-4.734642029E0,-6.852556229E0,1.050703706E1
1.240738608E0,6.402562141E0,-4.770552635E0,-6.862132072E0,1.052804972E1
1.243183452E0,6.412138462E0,-4.796888351E0,-6.828615189E0,1.052405069E1
1.245628295E0,6.421715260E0,-4.816040993E0,-6.871708393E0,1.056660087E1
1.248073920E0,6.450444221E0,-4.842375755E0,-6.842979431E0,1.057748558E1
1.250519545E0,6.474385262E0,-4.842375755E0,-6.807068348E0,1.056893784E1
1.252964389E0,6.515084743E0,-4.866316795E0,-6.754397392E0,1.057115190E1
1.255409181E0,6.574937344E0,-4.861528873E0,-6.711304188E0,1.057855699E1
1.257854806E0,6.620425224E0,-4.859134674E0,-6.615540028E0,1.054545351E1
1.260300431E0,6.697036266E0,-4.847164154E0,-6.553293705E0,1.054945276E1
1.262745274E0,6.740129948E0,-4.837587833E0,-6.536534786E0,1.056209708E1
1.265190066E0,6.790406227E0,-4.828011513E0,-6.474287987E0,1.055157414E1
1.267635691E0,6.811953068E0,-4.811253071E0,-6.311489582E0,1.045876481E1
1.270081316E0,6.795194149E0,-4.811253071E0,-6.153479099E0,1.035316979E1
1.272526160E0,6.728159428E0,-4.808858871E0,-5.988286018E0,1.021042714E1
1.274971004E0,6.682671547E0,-4.811253071E0,-5.870975494E0,1.011309094E1
1.277416629E0,6.634789467E0,-4.799282551E0,-5.727329731E0,9.992789907E0
1.279862254E0,6.627607346E0,-4.804070473E0,-5.576500893E0,9.904626921E0
1.282307097E0,6.577331066E0,-4.825617313E0,-5.449614048E0,9.810512712E0
1.284751889E0,6.591696262E0,-4.835193634E0,-5.322726727E0,9.755048790E0
1.287197514E0,6.594089985E0,-4.880681992E0,-5.217386723E0,9.722355869E0
1.289643139E0,6.589301586E0,-4.907016754E0,-5.107258320E0,9.673768468E0
1.292087983E0,6.586907864E0,-4.952504158E0,-4.937277317E0,9.606839228E0
1.294532774E0,6.615637302E0,-5.002780914E0,-4.774477959E0,9.570272388E0
1.296978399E0,6.618031025E0,-5.026721954E0,-4.559009075E0,9.478967876E0
1.299424024E0,6.697036266E0,-5.074604034E0,-4.350722790E0,9.462065824E0
1.301868868E0,6.744918346E0,-5.112909317E0,-4.154406548E0,9.428407021E0
1.304313712E0,6.847864628E0,-5.129667759E0,-3.958090305E0,9.427259418E0
1.306759337E0,6.991510868E0,-5.172761917E0,-3.745015621E0,9.469098799E0
1.309204910E0,7.080091953E0,-5.201490879E0,-3.445753098E0,9.436971116E0
1.311649754E0,7.228526115E0,-5.225431919E0,-3.148884773E0,9.458974778E0
1.314094597E0,7.412871838E0,-5.239796162E0,-2.959751129E0,9.548102400E0
1.316540222E0,7.654675484E0,-5.246978760E0,-2.751464367E0,9.679638373E0
1.318985847E0,7.958726406E0,-5.215855122E0,-2.605424404E0,9.865835341E0
1.321430691E0,8.301081657E0,-5.179944038E0,-2.480931282E0,1.009429527E1
1.323875483E0,8.633861542E0,-5.153608799E0,-2.327709198E0,1.032092432E1
1.326321108E0,8.973823547E0,-5.127274036E0,-2.251098156E0,1.057761273E1
1.328766733E0,9.253933907E0,-5.093756199E0,-2.176880836E0,1.078519611E1
1.331211577E0,9.459825516E0,-5.115303516E0,-2.081117153E0,1.095379740E1
1.333656368E0,9.632200241E0,-5.074604034E0,-1.999717593E0,1.106931606E1
1.336101993E0,9.742329597E0,-5.081785679E0,-1.937471032E0,1.115756809E1
1.338547618E0,9.773452759E0,-5.086574554E0,-1.889588952E0,1.117873722E1
1.340992462E0,9.766270638E0,-5.088968277E0,-1.846495271E0,1.116634162E1
1.343437306E0,9.704023361E0,-5.088968277E0,-1.784248710E0,1.110176612E1
1.345882931E0,9.625019073E0,-5.127274036E0,-1.726790428E0,1.104136479E1
1.348328556E0,9.526860237E0,-5.144032478E0,-1.676514268E0,1.095594981E1
1.350773399E0,9.455038071E0,-5.172761917E0,-1.638208747E0,1.090132738E1
1.353218191E0,9.378426552E0,-5.184732437E0,-1.633420467E0,1.083994453E1
1.355663816E0,9.304209709E0,-5.208673477E0,-1.657361507E0,1.079098906E1
1.358109441E0,9.194080353E0,-5.235008240E0,-1.654967427E0,1.070865734E1
1.360554285E0,9.026494026E0,-5.273313999E0,-1.683696628E0,1.058868591E1
1.362999077E0,8.873271942E0,-5.309225559E0,-1.631026387E0,1.046819364E1
1.365444702E0,8.655408859E0,-5.328377724E0,-1.616661787E0,1.029180776E1
1.367890327E0,8.442333221E0,-5.359501362E0,-1.647785187E0,1.013471465E1
1.370335170E0,8.260382652E0,-5.347530842E0,-1.767490029E0,9.997701169E0
1.372779962E0,8.097583771E0,-5.337954521E0,-1.906347752E0,9.884269480E0
1.375225587E0,7.975485325E0,-5.333166122E0,-2.107451916E0,9.823053529E0
1.377671212E0,7.884509563E0,-5.316407681E0,-2.306162357E0,9.785094098E0
1.380116056E0,7.836627483E0,-5.273313999E0,-2.535995960E0,9.780176193E0
1.382560899E0,7.850991726E0,-5.227825642E0,-2.794558525E0,9.837570298E0
1.385006524E0,7.949150562E0,-5.194308281E0,-3.093820572E0,9.987069586E0
1.387452149E0,8.047307968E0,-5.165579319E0,-3.373930454E0,1.014030483E1
1.389896993E0,8.138282776E0,-5.134455681E0,-3.637281418E0,1.028708403E1
1.392341785E0,8.210105896E0,-5.127274036E0,-3.914996624E0,1.044135894E1
1.394787410E0,8.274746895E0,-5.136850357E0,-4.171165466E0,1.059515404E1
1.397233035E0,8.329811096E0,-5.139244556E0,-4.391422749E0,1.072763633E1
1.399677879E0,8.284323692E0,-5.179944038E0,-4.570979595E0,1.078682964E1
1.402122670E0,8.286717415E0,-5.203884602E0,-4.719414234E0,1.086383777E1
1.404568295E0,8.246017456E0,-5.242190361E0,-4.843907356E0,1.090599845E1
1.407013920E0,8.200530052E0,-5.285284519E0,-4.908547401E0,1.092139017E1
1.409458764E0,8.092795372E0,-5.292466640E0,-4.956429482E0,1.086598975E1
1.411903556E0,8.016183853E0,-5.292466640E0,-4.937277317E0,1.080028305E1
1.414349181E0,7.889297962E0,-5.251766682E0,-4.922912121E0,1.067975371E1
1.416794806E0,7.771986485E0,-5.194308281E0,-4.867847919E0,1.053947607E1
1.419239649E0,7.573276043E0,-5.158396721E0,-4.755325794E0,1.032359870E1
1.421684493E0,7.274013996E0,-5.096150398E0,-4.594920635E0,9.999766204E0
1.424130118E0,6.886170387E0,-5.029115677E0,-4.460851192E0,9.623437040E0
1.426575743E0,6.373833179E0,-4.954898834E0,-4.293263912E0,9.143789525E0
1.429020587E0,5.859101772E0,-4.899834156E0,-4.128071785E0,8.682074925E0
1.431465379E0,5.411405087E0,-4.832799911E0,-4.039489746E0,8.304019352E0
1.433911004E0,5.102566719E0,-4.787312031E0,-4.015548706E0,8.067166480E0
1.436356629E0,4.980467796E0,-4.722671509E0,-4.070612907E0,7.979885657E0
1.438801472E0,5.073837280E0,-4.650848389E0,-4.214259148E0,8.070575918E0
1.441246264E0,5.337188244E0,-4.617331028E0,-4.415363312E0,8.324707643E0
1.443691889E0,5.751367092E0,-4.583813190E0,-4.635620594E0,8.693592185E0
1.446137514E0,6.220610619E0,-4.602966309E0,-4.901365757E0,9.160059039E0
1.448582358E0,6.709006786E0,-4.590995789E0,-5.157534122E0,9.627469689E0
1.451027149E0,7.113609791E0,-4.612542152E0,-5.382579327E0,1.004246730E1
1.453472774E0,7.367383957E0,-4.655636311E0,-5.557348728E0,1.033621888E1
1.455918399E0,7.477512836E0,-4.677183151E0,-5.655506611E0,1.047730860E1
1.458363243E0,7.412871838E0,-4.691547871E0,-5.748876095E0,1.048860652E1
1.460808087E0,7.240496635E0,-4.720276833E0,-5.799152851E0,1.040845708E1
1.463253712E0,6.962780952E0,-4.746612072E0,-5.760846615E0,1.020774208E1
1.465699337E0,6.673095226E0,-4.749006271E0,-5.758452415E0,1.001214436E1
1.468144181E0,6.448050022E0,-4.717882633E0,-5.698600292E0,9.813756208E0
1.470588972E0,6.342709541E0,-4.662818909E0,-5.662688732E0,9.697313452E0
1.473034597E0,6.313980579E0,-4.619724751E0,-5.633959770E0,9.641043005E0
1.475480222E0,6.392985821E0,-4.552690029E0,-5.669871330E0,9.682184418E0
1.477925066E0,6.481567383E0,-4.464108467E0,-5.698600292E0,9.716636529E0
1.480369858E0,6.536631584E0,-4.423408985E0,-5.710570812E0,9.741905282E0
1.482815483E0,6.438473701E0,-4.346797943E0,-5.626777172E0,9.592143520E0
1.485261108E0,6.218216419E0,-4.298915863E0,-5.502284050E0,9.349974481E0
1.487705952E0,5.859101772E0,-4.284550667E0,-5.286815166E0,8.979803038E0
1.490150795E0,5.564627647E0,-4.239063263E0,-5.114439964E0,8.665577554E0
1.492596420E0,5.330005646E0,-4.195969105E0,-4.977976799E0,8.413998450E0
1.495041993E0,5.183965683E0,-4.100205421E0,-4.872636318E0,8.211441371E0
1.497486837E0,5.140872002E0,-4.045141220E0,-4.803206921E0,8.115573248E0
1.499931681E0,5.179177761E0,-3.975712538E0,-4.817572117E0,8.114134185E0
1.502377306E0,5.286911964E0,-3.927830458E0,-4.879818439E0,8.197067660E0
1.504822931E0,5.413799286E0,-3.846431017E0,-4.963612080E0,8.291061401E0
1.507267774E0,5.533504009E0,-3.834460735E0,-5.056981564E0,8.419965456E0
1.509712566E0,5.657997608E0,-3.815307856E0,-5.162322044E0,8.556814820E0
1.512158191E0,5.662785530E0,-3.777002335E0,-5.258086205E0,8.601183473E0
1.514603816E0,5.641238689E0,-3.765031815E0,-5.384973049E0,8.660079287E0
1.517048660E0,5.547868729E0,-3.765031815E0,-5.511860847E0,8.679569229E0
1.519493452E0,5.444922447E0,-3.762637854E0,-5.621989250E0,8.683973008E0
1.521939077E0,5.363523006E0,-3.743484735E0,-5.710570812E0,8.682838016E0
1.524384702E0,5.425769806E0,-3.750667334E0,-5.894916534E0,8.846271779E0
1.526829545E0,5.598145008E0,-3.709967613E0,-6.134325981E0,9.095770581E0
1.529274389E0,5.849524975E0,-3.676450014E0,-6.443165302E0,9.447095122E0
1.531720014E0,6.177516460E0,-3.618991852E0,-6.826220512E0,9.892224124E0
1.534165587E0,6.539025784E0,-3.592656851E0,-7.170970917E0,1.034837501E1
1.536610431E0,6.867017269E0,-3.544774771E0,-7.489386082E0,1.076161039E1
1.539055274E0,7.113609791E0,-3.494498491E0,-7.793436527E0,1.111542248E1
1.541500899E0,7.250072956E0,-3.441828489E0,-7.992146969E0,1.132625951E1
1.543946524E0,7.250072956E0,-3.417887688E0,-8.061574936E0,1.136813549E1
1.546391368E0,7.180644035E0,-3.386764288E0,-8.008905411E0,1.127716219E1
1.548836160E0,6.981934071E0,-3.360429049E0,-7.798224926E0,1.099327971E1
1.551281785E0,6.756888866E0,-3.331700087E0,-7.539661884E0,1.065843675E1
1.553727410E0,6.543814182E0,-3.310153008E0,-7.190123558E0,1.027017496E1
1.556172254E0,6.369044781E0,-3.288606167E0,-6.809462070E0,9.886780853E0
1.558617045E0,6.254127979E0,-3.267059326E0,-6.467106342E0,9.571377010E0
1.561062670E0,6.227793217E0,-3.240724325E0,-6.158267021E0,9.338734133E0
1.563508295E0,6.227793217E0,-3.231147766E0,-5.964344978E0,9.208644594E0
1.565953139E0,6.290039539E0,-3.185659885E0,-5.811122894E0,9.136858082E0
1.568397931E0,6.354680061E0,-3.173689365E0,-5.722541332E0,9.121498899E0
1.570843556E0,6.457626343E0,-3.183265924E0,-5.736905575E0,9.205770229E0
1.573289181E0,6.539025784E0,-3.178477526E0,-5.789576054E0,9.294125481E0
1.575734024E0,6.608454704E0,-3.190448046E0,-5.873369694E0,9.399314011E0
1.578178868E0,6.613242626E0,-3.221571207E0,-5.940403938E0,9.455257692E0
1.580624493E0,6.610848427E0,-3.250300646E0,-5.971527576E0,9.482980165E0
1.583070118E0,6.553390026E0,-3.259876966E0,-6.026591778E0,9.481219707E0
1.585514962E0,6.515084743E0,-3.274241686E0,-6.050532818E0,9.475016370E0
1.587959754E0,6.450444221E0,-3.281423807E0,-6.093626499E0,9.460880338E0
1.590405379E0,6.381015301E0,-3.283818007E0,-6.146296501E0,9.448691849E0
1.592851004E0,6.383409023E0,-3.233541727E0,-6.186996460E0,9.459525784E0
1.595295847E0,6.359467983E0,-3.226359606E0,-6.234878540E0,9.472377724E0
1.597740639E0,6.287645340E0,-3.238330126E0,-6.318671703E0,9.484032793E0
1.600186264E0,6.165545940E0,-3.240724325E0,-6.349795341E0,9.425293193E0
1.602631889E0,6.057811737E0,-3.298182487E0,-6.416830063E0,9.420764237E0
1.605076733E0,5.935712814E0,-3.317335367E0,-6.486258507E0,9.397284181E0
1.607521524E0,5.796854973E0,-3.353246927E0,-6.507805824E0,9.338058105E0
1.609967149E0,5.669967651E0,-3.393946648E0,-6.558081627E0,9.309986125E0
1.612412774E0,5.492804527E0,-3.405917168E0,-6.596386909E0,9.234906258E0
1.614857618E0,5.389858246E0,-3.420281649E0,-6.658634186E0,9.224223961E0
1.617302462E0,5.296488762E0,-3.403522730E0,-6.718486309E0,9.207324175E0
1.619748087E0,5.243818283E0,-3.405917168E0,-6.804674149E0,9.241292778E0
1.622193712E0,5.188754082E0,-3.362823248E0,-6.871708393E0,9.244031878E0
1.624638504E0,5.195936203E0,-3.346064568E0,-6.943531513E0,9.295511336E0
1.627083347E0,5.243818283E0,-3.360429049E0,-7.125483036E0,9.463753065E0
1.629528972E0,5.303670883E0,-3.362823248E0,-7.257158756E0,9.597075505E0
1.631974597E0,5.327611446E0,-3.367611408E0,-7.415169239E0,9.731854148E0
1.634419441E0,5.322823524E0,-3.403522730E0,-7.573179722E0,9.862528497E0
1.636864233E0,5.274941444E0,-3.463375330E0,-7.731190205E0,9.979542970E0
1.639309858E0,5.267759323E0,-3.504075050E0,-7.896383286E0,1.011833481E1
1.641755483E0,5.291700363E0,-3.525622129E0,-8.083122253E0,1.028440419E1
1.644200327E0,5.306064606E0,-3.556745291E0,-8.255497932E0,1.043829511E1
1.646645118E0,5.351552486E0,-3.587868690E0,-8.458995819E0,1.063327447E1
1.649090743E0,5.397040844E0,-3.602233171E0,-8.631371498E0,1.079836597E1
1.651536368E0,5.416193485E0,-3.604627371E0,-8.782198906E0,1.092957035E1
1.653981212E0,5.428164005E0,-3.621385813E0,-8.904297829E0,1.103928981E1
1.656426056E0,5.476045609E0,-3.654903412E0,-8.976120949E0,1.113176274E1
1.658871681E0,5.514351845E0,-3.650115013E0,-9.052733421E0,1.121086073E1
1.661317254E0,5.581386089E0,-3.674056053E0,-9.093432426E0,1.128455014E1
1.663762097E0,5.648421288E0,-3.681238413E0,-9.165255547E0,1.137796504E1
1.666206941E0,5.696303368E0,-3.714755774E0,-9.193984032E0,1.143576079E1
1.668652566E0,5.725032330E0,-3.743484735E0,-9.210742950E0,1.147290106E1
1.671098191E0,5.701091290E0,-3.784184456E0,-9.177226067E0,1.144744391E1
1.673543035E0,5.629268169E0,-3.829672575E0,-9.124555588E0,1.138475150E1
1.675987827E0,5.619691849E0,-3.882342577E0,-9.047944069E0,1.133661379E1
1.678433452E0,5.595750809E0,-3.901495457E0,-8.940210342E0,1.124550821E1
1.680879077E0,5.624480247E0,-3.932618856E0,-8.892328262E0,1.123270987E1
1.683323920E0,5.648421288E0,-3.975712538E0,-8.763047218E0,1.115804417E1
1.685768712E0,5.672362328E0,-4.002047539E0,-8.631371498E0,1.107667156E1
1.688214337E0,5.693908691E0,-4.030776501E0,-8.461390495E0,1.096644357E1
1.690659962E0,5.717849731E0,-4.078658581E0,-8.344079971E0,1.090655454E1
1.693104806E0,5.727426052E0,-4.112175941E0,-8.248315811E0,1.085118030E1
1.695549597E0,5.753761292E0,-4.172028542E0,-8.123822212E0,1.079389079E1
1.697995222E0,5.806431770E0,-4.231880665E0,-8.006511688E0,1.075768066E1
1.700440847E0,5.859101772E0,-4.277369022E0,-7.944264889E0,1.075808087E1
1.702885691E0,5.976412773E0,-4.339615345E0,-7.891594410E0,1.080865548E1
1.705330535E0,6.069782257E0,-4.361162186E0,-7.814983845E0,1.081369339E1
1.707776160E0,6.143999577E0,-4.416226387E0,-7.695278645E0,1.079208505E1
1.710221785E0,6.199063778E0,-4.480867386E0,-7.573179722E0,1.076381045E1
1.712666629E0,6.237369061E0,-4.540719986E0,-7.355316639E0,1.065943684E1
1.715111420E0,6.237369061E0,-4.614936829E0,-7.161394596E0,1.055878721E1
1.717557045E0,6.211034298E0,-4.677183151E0,-6.996201515E0,1.045943712E1
1.720002670E0,6.218216419E0,-4.739429951E0,-6.795097828E0,1.035865658E1
1.722447514E0,6.194275856E0,-4.808858871E0,-6.651451588E0,1.028280046E1
1.724892306E0,6.237369061E0,-4.883075714E0,-6.491046906E0,1.024123485E1
1.727337931E0,6.270886421E0,-4.933351994E0,-6.349795341E0,1.019715055E1
1.729783556E0,6.304404259E0,-4.993204117E0,-6.213331699E0,1.016282890E1
1.732228399E0,6.273280621E0,-5.065027237E0,-6.019409657E0,1.006190058E1
1.734673191E0,6.273280621E0,-5.129667759E0,-5.782393456E0,9.955079866E0
1.737118816E0,6.254127979E0,-5.215855122E0,-5.516648769E0,9.836293767E0
1.739564441E0,6.256522179E0,-5.290072441E0,-5.210204124E0,9.709539805E0
1.742009285E0,6.223004818E0,-5.385836124E0,-4.884606838E0,9.570392034E0
1.744454077E0,6.177516460E0,-5.457659245E0,-4.511126995E0,9.396702656E0
1.746899702E0,6.172728539E0,-5.558211327E0,-4.154406548E0,9.287377699E0
1.749345327E0,6.218216419E0,-5.584547043E0,-3.867114544E0,9.209123520E0
1.751790170E0,6.333133221E0,-5.658763885E0,-3.613340378E0,9.229648628E0
1.754235014E0,6.515084743E0,-5.704251289E0,-3.352383614E0,9.285649567E0
1.756680639E0,6.761677265E0,-5.721010208E0,-3.254225254E0,9.436112507E0
1.759126212E0,7.072909832E0,-5.716221809E0,-3.201555252E0,9.641120334E0
1.761571056E0,7.393719196E0,-5.732980728E0,-3.270984173E0,9.911280898E0
1.764015899E0,7.664252281E0,-5.704251289E0,-3.378718376E0,1.013385335E1
1.766461524E0,7.884509563E0,-5.673128128E0,-3.606157780E0,1.036118949E1
1.768907149E0,8.025760651E0,-5.649187565E0,-3.869508743E0,1.054984607E1
1.771351993E0,8.009001732E0,-5.656369686E0,-4.108918667E0,1.063117300E1
1.773796785E0,7.841415882E0,-5.642004967E0,-4.266929150E0,1.056062060E1
1.776242410E0,7.570882320E0,-5.699463367E0,-4.389028072E0,1.044345294E1
1.778688035E0,7.230920315E0,-5.735374928E0,-4.420151711E0,1.023320455E1
1.781132879E0,6.910110950E0,-5.811985970E0,-4.434515953E0,1.005951023E1
1.783577670E0,6.675488949E0,-5.912538528E0,-4.377057552E0,9.933725252E0
1.786023295E0,6.546208382E0,-5.991543293E0,-4.374663830E0,9.893893007E0
1.788468920E0,6.610848427E0,-6.072942734E0,-4.372269630E0,9.985023390E0
1.790913764E0,6.744918346E0,-6.147160053E0,-4.372269630E0,1.011920165E1
1.793358608E0,6.950810432E0,-6.197435856E0,-4.333964348E0,1.027157358E1
1.795804233E0,7.202191353E0,-6.228559494E0,-4.204682827E0,1.040893229E1
1.798249806E0,7.496665001E0,-6.281229496E0,-4.065824986E0,1.059173088E1
1.800694649E0,7.886903286E0,-6.250106335E0,-3.955696106E0,1.081270569E1
1.803139493E0,8.167012215E0,-6.230953217E0,-3.756986141E0,1.093799851E1
1.805585118E0,8.358540535E0,-6.185465336E0,-3.318865776E0,1.091512947E1
1.808030743E0,8.526127815E0,-6.111248493E0,-2.887928486E0,1.088036510E1
1.810475587E0,8.672167778E0,-6.027454853E0,-2.461778641E0,1.084421782E1
1.812920379E0,8.870877266E0,-5.900568008E0,-2.107451916E0,1.086050274E1
1.815366004E0,9.067193985E0,-5.792833328E0,-1.714819908E0,1.089548219E1
1.817811629E0,9.246750832E0,-5.675522327E0,-1.394010663E0,1.093879428E1
1.820256472E0,9.380820274E0,-5.577364445E0,-1.123477459E0,1.097128000E1
1.822701264E0,9.457431793E0,-5.524694443E0,-8.194269538E-1,1.098347510E1
1.825146889E0,9.486160278E0,-5.481600285E0,-5.728347301E-1,1.097102175E1
1.827592514E0,9.452643394E0,-5.438506603E0,-3.884891570E-1,1.091241243E1
1.830037358E0,9.356879234E0,-5.462447643E0,-2.687842250E-1,1.083797805E1
1.832482149E0,9.241962433E0,-5.455265522E0,-2.161140442E-1,1.073408109E1
1.834927774E0,9.143804550E0,-5.455265522E0,-2.352668345E-1,1.065009080E1
1.837373399E0,9.088740349E0,-5.503147125E0,-2.975133955E-1,1.062912713E1
1.839818243E0,9.045646667E0,-5.534270287E0,-4.435534179E-1,1.061360499E1
1.842263035E0,9.067193985E0,-5.606093407E0,-7.021160722E-1,1.068341036E1
1.844708660E0,9.057616234E0,-5.677916527E0,-1.018137217E0,1.073851718E1
1.847154285E0,9.060011864E0,-5.735374928E0,-1.355705023E0,1.080815787E1
1.849599129E0,9.031281471E0,-5.823956490E0,-1.738760829E0,1.088603709E1
1.852043972E0,8.913971901E0,-5.919720173E0,-2.066752434E0,1.089832316E1
1.854489597E0,8.722443581E0,-5.960420132E0,-2.334891319E0,1.081939682E1
1.856935222E0,8.538097382E0,-6.001119614E0,-2.672459126E0,1.077286319E1
1.859380066E0,8.341781616E0,-6.049001694E0,-2.974115849E0,1.072478937E1
1.861824858E0,8.231652260E0,-6.044213772E0,-3.287742615E0,1.072855398E1
1.864270483E0,8.152647972E0,-5.996331692E0,-3.570246696E0,1.073165058E1
1.866716108E0,8.171800613E0,-5.938873291E0,-3.812050343E0,1.079723432E1
1.869160952E0,8.195741653E0,-5.859868050E0,-4.027519226E0,1.085030626E1
1.871605743E0,8.250805855E0,-5.761709690E0,-4.190318108E0,1.090100278E1
1.874051368E0,8.325022697E0,-5.651581287E0,-4.269323349E0,1.093039321E1
1.876496993E0,8.382481575E0,-5.512723923E0,-4.360299110E0,1.093930211E1
1.878941837E0,8.427969933E0,-5.393018723E0,-4.396210670E0,1.092895221E1
1.881386629E0,8.478245735E0,-5.251766682E0,-4.374663830E0,1.089033460E1
1.883832254E0,8.499792099E0,-5.134455681E0,-4.331570148E0,1.083381746E1
1.886277879E0,8.463880539E0,-5.033903599E0,-4.235805988E0,1.072005185E1
1.888722722E0,8.389663696E0,-4.938139915E0,-4.080189705E0,1.055554976E1
1.891167514E0,8.207712173E0,-4.861528873E0,-3.883873463E0,1.029978035E1
1.893613139E0,7.946755886E0,-4.775341511E0,-3.658827782E0,9.967037493E0
1.896058764E0,7.561306000E0,-4.708306313E0,-3.390688896E0,9.530911181E0
1.898503608E0,7.094456673E0,-4.622118950E0,-3.134520531E0,9.028871359E0
1.900948452E0,6.632395744E0,-4.545507908E0,-2.875957966E0,8.539405698E0
1.903394077E0,6.179911137E0,-4.485655308E0,-2.619789124E0,8.073146862E0
1.905839649E0,5.760943890E0,-4.428196907E0,-2.437837601E0,7.664232154E0
1.908284493E0,5.478440285E0,-4.368344307E0,-2.298980236E0,7.374350823E0
1.910729337E0,5.284518242E0,-4.332432747E0,-2.275039196E0,7.202215624E0
1.913174962E0,5.205512524E0,-4.296521187E0,-2.368408680E0,7.153098253E0
1.915620587E0,5.258183002E0,-4.277369022E0,-2.531207561E0,7.235425762E0
1.918065431E0,5.411405087E0,-4.279762745E0,-2.773011684E0,7.435675354E0
1.920510222E0,5.646027088E0,-4.260609627E0,-3.081850052E0,7.715453066E0
1.922955847E0,5.892619133E0,-4.255821705E0,-3.426600456E0,8.035954786E0
1.925401472E0,6.036265373E0,-4.301310062E0,-3.773744583E0,8.317386374E0
1.927846316E0,6.196669579E0,-4.342009544E0,-4.128071785E0,8.619323489E0
1.930291108E0,6.273280621E0,-4.389891148E0,-4.465639591E0,8.863810185E0
1.932736733E0,6.309192181E0,-4.447350025E0,-4.781660557E0,9.080149002E0
1.935182358E0,6.354680061E0,-4.485655308E0,-5.059376240E0,9.279027436E0
1.937627202E0,6.402562141E0,-4.543113708E0,-5.317938805E0,9.482254862E0
1.940071993E0,6.498326302E0,-4.602966309E0,-5.559742451E0,9.712171728E0
1.942517618E0,6.639577866E0,-4.643665791E0,-5.784787655E0,9.955470578E0
1.944963243E0,6.845469952E0,-4.660424232E0,-6.009833336E0,1.023220942E1
1.947408087E0,7.020239830E0,-4.703518391E0,-6.249243259E0,1.050999019E1
1.949852879E0,7.130368233E0,-4.713094711E0,-6.481470585E0,1.072682963E1
1.952298504E0,7.137550831E0,-4.717882633E0,-6.632298470E0,1.082545294E1
1.954744129E0,7.036998272E0,-4.708306313E0,-6.730456829E0,1.081603172E1
1.957188972E0,6.838288307E0,-4.717882633E0,-6.737638950E0,1.069655936E1
1.959633816E0,6.543814182E0,-4.696335793E0,-6.773550510E0,1.052416555E1
1.962079441E0,6.249339581E0,-4.662818909E0,-6.752003670E0,1.031434336E1
1.964525066E0,5.985989094E0,-4.602966309E0,-6.694545269E0,1.009139736E1
1.966969910E0,5.758549690E0,-4.545507908E0,-6.562870026E0,9.843464819E0
1.969414702E0,5.660391808E0,-4.495231628E0,-6.438376427E0,9.679867448E0
1.971860327E0,5.681938171E0,-4.418620110E0,-6.285154819E0,9.555720599E0
1.974305952E0,5.875860214E0,-4.342009544E0,-6.227695942E0,9.600155045E0
1.976750795E0,6.184699059E0,-4.286945343E0,-6.194178581E0,9.746602029E0
1.979195587E0,6.562966824E0,-4.198363781E0,-6.167843819E0,9.936855103E0
1.981641212E0,6.929263592E0,-4.133722782E0,-6.198966980E0,1.017494715E1
1.984086837E0,7.226132393E0,-4.066688061E0,-6.261213779E0,1.039027137E1
1.986531681E0,7.276408195E0,-4.052323341E0,-6.220513821E0,1.039529860E1
1.988976472E0,7.144732475E0,-4.037959099E0,-6.139114857E0,1.024895346E1
1.991422097E0,6.821529388E0,-4.047535419E0,-6.005044937E0,9.948686892E0
1.993867722E0,6.424108982E0,-4.085840702E0,-5.868581295E0,9.612674803E0
1.996312566E0,5.971624374E0,-4.107388020E0,-5.734511852E0,9.242053895E0
1.998757358E0,5.646027088E0,-4.095417500E0,-5.588471413E0,8.937621558E0
2.001202983E0,5.492804527E0,-4.100205421E0,-5.502284050E0,8.789636843E0
2.003648608E0,5.588568687E0,-4.071476460E0,-5.521437168E0,8.848462518E0
2.006093452E0,5.854313850E0,-4.030776501E0,-5.681841850E0,9.099641568E0
2.008538295E0,6.268492699E0,-3.992471218E0,-5.866187096E0,9.468156007E0
2.010983920E0,6.685065746E0,-3.956559896E0,-6.088838577E0,9.870077278E0
2.013429493E0,6.993904591E0,-3.920648336E0,-6.311489582E0,1.020397401E1
2.015874337E0,7.127974033E0,-3.894313097E0,-6.435982704E0,1.036318299E1
2.018319181E0,7.080091953E0,-3.927830458E0,-6.548505306E0,1.041337966E1
2.020764806E0,6.826317787E0,-3.970924377E0,-6.538928986E0,1.025302137E1
2.023210379E0,6.443261623E0,-3.997259378E0,-6.457529545E0,9.959587878E0
2.025655222E0,6.086541176E0,-3.994865417E0,-6.364159584E0,9.669925563E0
2.028100066E0,5.789672852E0,-3.985288858E0,-6.251636982E0,9.406689320E0
2.030545691E0,5.646027088E0,-3.975712538E0,-6.225302219E0,9.297220003E0
2.032991316E0,5.648421288E0,-3.918254137E0,-6.263607502E0,9.300008466E0
2.035436160E0,5.775308132E0,-3.858401537E0,-6.464712143E0,9.488622109E0
2.037880952E0,6.033871174E0,-3.798549414E0,-6.696939468E0,9.781900492E0
2.040326577E0,6.354680061E0,-3.712361574E0,-7.008172035E0,1.016258148E1
2.042772202E0,6.737736225E0,-3.635750532E0,-7.352922440E0,1.061514200E1
2.045217045E0,7.135156155E0,-3.556745291E0,-7.731190205E0,1.110550280E1
2.047661837E0,7.491877079E0,-3.528016090E0,-8.051999092E0,1.155031641E1
2.050107462E0,7.769592762E0,-3.480134010E0,-8.289014816E0,1.188215768E1
2.052553087E0,7.977879047E0,-3.429857969E0,-8.437449455E0,1.210789136E1
2.054997931E0,8.020972252E0,-3.398734808E0,-8.447025299E0,1.213423383E1
2.057442722E0,7.965908527E0,-3.372399569E0,-8.317744255E0,1.200056861E1
2.059888347E0,7.827050686E0,-3.348458529E0,-8.025664330E0,1.169983696E1
2.062333972E0,7.678616524E0,-3.319729567E0,-7.716825485E0,1.138117532E1
2.064778816E0,7.544547081E0,-3.279029846E0,-7.381651402E0,1.105264696E1
2.067223660E0,7.443994999E0,-3.245512247E0,-7.048871994E0,1.075327893E1
2.069669285E0,7.364989758E0,-3.235936165E0,-6.783127308E0,1.052260296E1
2.072114858E0,7.293166637E0,-3.221571207E0,-6.526958466E0,1.030388215E1
2.074559702E0,7.178250313E0,-3.235936165E0,-6.361765385E0,1.012277725E1
2.077004545E0,7.072909832E0,-3.267059326E0,-6.167843819E0,9.936902309E0
2.079450170E0,6.984328270E0,-3.312546968E0,-6.067291737E0,9.826791838E0
2.081895795E0,6.833499432E0,-3.353246927E0,-5.978709698E0,9.679150225E0
2.084340639E0,6.706612587E0,-3.429857969E0,-5.892522335E0,9.563702084E0
2.086785431E0,6.653942585E0,-3.487316370E0,-5.847034454E0,9.519671176E0
2.089231056E0,6.661124706E0,-3.568715811E0,-5.820699215E0,9.538702964E0
2.091676681E0,6.680277824E0,-3.642932892E0,-5.832669735E0,9.587341034E0
2.094121524E0,6.704218864E0,-3.676450014E0,-5.878157616E0,9.644458110E0
2.096566316E0,6.634789467E0,-3.736302614E0,-5.890128136E0,9.626733504E0
2.099011941E0,6.464808464E0,-3.779396296E0,-5.868581295E0,9.514085939E0
2.101457566E0,6.196669579E0,-3.798549414E0,-5.777605534E0,9.284848799E0
2.103902410E0,5.873466015E0,-3.865584135E0,-5.686629772E0,9.043124565E0
2.106347202E0,5.569415569E0,-3.891919136E0,-5.624382973E0,8.820380273E0
2.108792827E0,5.327611446E0,-3.911071777E0,-5.638747692E0,8.687658010E0
2.111238452E0,5.183965683E0,-3.927830458E0,-5.727329731E0,8.666236678E0
2.113683295E0,5.049896240E0,-3.966135979E0,-5.854216576E0,8.689277205E0
2.116128087E0,4.954132080E0,-3.997259378E0,-5.983498096E0,8.736346872E0
2.118573712E0,4.879915237E0,-4.035564899E0,-6.153479099E0,8.829760008E0
2.121019337E0,4.860762596E0,-4.033170700E0,-6.445559025E0,9.024339868E0
2.123464181E0,4.906250000E0,-4.045141220E0,-6.740033150E0,9.266202211E0
2.125909024E0,4.980467796E0,-4.042747021E0,-7.065630436E0,9.543164905E0
2.128354649E0,5.057078838E0,-3.992471218E0,-7.376863480E0,9.794487613E0
2.130800222E0,5.148054123E0,-3.956559896E0,-7.673731804E0,1.005201409E1
2.133245066E0,5.241424084E0,-3.899101257E0,-7.917929649E0,1.026494652E1
2.135689910E0,5.274941444E0,-3.841643095E0,-8.114246368E0,1.041269528E1
2.138135535E0,5.289306164E0,-3.829672575E0,-8.238739014E0,1.051284796E1
2.140581108E0,5.294094086E0,-3.796154976E0,-8.348867416E0,1.058970311E1
2.143025952E0,5.320429802E0,-3.788972855E0,-8.456602097E0,1.068538289E1
2.145470795E0,5.322823524E0,-3.777002335E0,-8.526031494E0,1.073738376E1
2.147916420E0,5.251000881E0,-3.774608374E0,-8.545184135E0,1.071638234E1
2.150362045E0,5.143266201E0,-3.786578894E0,-8.523636818E0,1.065099768E1
2.152806889E0,5.013984680E0,-3.820096016E0,-8.470966339E0,1.055890367E1
2.155251681E0,4.913432598E0,-3.836854935E0,-8.475754738E0,1.052148726E1
2.157697306E0,4.853579998E0,-3.903889656E0,-8.482936859E0,1.052415370E1
2.160142931E0,4.865550518E0,-3.896707296E0,-8.468572617E0,1.051544729E1
2.162587774E0,4.925403118E0,-3.915860176E0,-8.478149414E0,1.055805732E1
2.165032566E0,4.999619961E0,-3.951771498E0,-8.523636818E0,1.064260693E1
2.167478191E0,5.152842522E0,-3.963742018E0,-8.583489418E0,1.076751259E1
2.169923816E0,5.318035126E0,-3.999653578E0,-8.662493706E0,1.092325609E1
2.172368660E0,5.516745567E0,-4.011623859E0,-8.739106178E0,1.108600850E1
2.174813452E0,5.713061810E0,-4.049929619E0,-8.794170380E0,1.124181648E1
2.177259077E0,5.890224934E0,-4.083446980E0,-8.794170380E0,1.134489849E1
2.179704702E0,6.067388058E0,-4.128934383E0,-8.758257866E0,1.142665208E1
2.182149545E0,6.170334816E0,-4.186393261E0,-8.636158943E0,1.140973977E1
2.184594337E0,6.237369061E0,-4.234274864E0,-8.437449455E0,1.131478722E1
2.187039962E0,6.244551659E0,-4.294127464E0,-8.243527412E0,1.119775425E1
2.189485587E0,6.203852177E0,-4.358768463E0,-7.972994328E0,1.100251257E1
2.191930431E0,6.201457500E0,-4.394679546E0,-7.721613407E0,1.083487873E1
2.194375222E0,6.175122738E0,-4.454531670E0,-7.427139759E0,1.063660652E1
2.196820847E0,6.153575420E0,-4.509596348E0,-7.173365116E0,1.047187265E1
2.199266472E0,6.134423256E0,-4.559872150E0,-6.905226231E0,1.030076366E1
2.201711316E0,6.084146976E0,-4.655636311E0,-6.629904747E0,1.013150684E1
2.204156160E0,6.100905418E0,-4.727459431E0,-6.368947983E0,1.000666868E1
2.206601785E0,6.151181698E0,-4.799282551E0,-6.112779617E0,9.911418866E0
2.209047358E0,6.244551659E0,-4.895046234E0,-5.839852333E0,9.851892119E0
2.211492202E0,6.325951099E0,-4.981234074E0,-5.566924572E0,9.788820123E0
2.213937045E0,6.416926861E0,-5.069815159E0,-5.260479927E0,9.723817416E0
2.216382670E0,6.546208382E0,-5.167973518E0,-5.013888359E0,9.731385869E0
2.218828295E0,6.653942585E0,-5.232614517E0,-4.738566399E0,9.700990574E0
2.221273139E0,6.785618305E0,-5.309225559E0,-4.484792233E0,9.713179355E0
2.223717931E0,6.919687748E0,-5.414566040E0,-4.278899670E0,9.772849447E0
2.226163556E0,7.025027752E0,-5.464841843E0,-4.058642387E0,9.782028895E0
2.228609181E0,7.139944553E0,-5.541452885E0,-3.914996624E0,9.849553638E0
2.231054024E0,7.235708714E0,-5.594122887E0,-3.814444542E0,9.909575098E0
2.233498816E0,7.333866596E0,-5.639610767E0,-3.802474022E0,1.000248057E1
2.235944441E0,7.376960278E0,-5.685098648E0,-3.888661385E0,1.009264965E1
2.238390066E0,7.379354477E0,-5.694675446E0,-3.979637146E0,1.013517206E1
2.240834910E0,7.317107677E0,-5.742557526E0,-4.104130745E0,1.016665731E1
2.243279702E0,7.199797153E0,-5.766498566E0,-4.245382309E0,1.015445004E1
2.245725327E0,7.070515633E0,-5.819168568E0,-4.357904911E0,1.014131399E1
2.248170952E0,6.941234112E0,-5.881414890E0,-4.429728031E0,1.011900502E1
2.250615795E0,6.862229347E0,-5.960420132E0,-4.480004311E0,1.013347119E1
2.253060587E0,6.799982548E0,-6.015484333E0,-4.460851192E0,1.011558242E1
2.255506212E0,6.778435707E0,-6.077730656E0,-4.422545433E0,1.012150723E1
2.257951837E0,6.785618305E0,-6.137583256E0,-4.400998592E0,1.015299624E1
2.260396681E0,6.826317787E0,-6.171100616E0,-4.355511189E0,1.018094176E1
2.262841472E0,6.910110950E0,-6.192647934E0,-4.197500229E0,1.018418038E1
2.265287097E0,6.981934071E0,-6.202224255E0,-3.998789787E0,1.015900137E1
2.267732722E0,7.104032993E0,-6.171100616E0,-3.800079823E0,1.014841733E1
2.270177566E0,7.295561314E0,-6.123219013E0,-3.519970417E0,1.015427091E1
2.272622410E0,7.410477638E0,-6.089701176E0,-3.108185291E0,1.008268095E1
2.275068035E0,7.503847599E0,-6.010696411E0,-2.653306484E0,9.973777391E0
2.277513660E0,7.630734444E0,-5.941267490E0,-2.275039196E0,9.934916753E0
2.279958452E0,7.800715446E0,-5.850291729E0,-1.865648150E0,9.927623976E0
2.282403295E0,8.092795372E0,-5.752133369E0,-1.535262465E0,1.004676097E1
2.284848920E0,8.346570015E0,-5.689887047E0,-1.267123342E0,1.018065063E1
2.287294493E0,8.590767860E0,-5.574970245E0,-1.063624978E0,1.029625581E1
2.289739337E0,8.822996140E0,-5.543846607E0,-8.744912148E-1,1.045677919E1
2.292184181E0,8.976217270E0,-5.534270287E0,-7.523921132E-1,1.057197796E1
2.294629806E0,9.071981430E0,-5.541452885E0,-6.901455522E-1,1.065292674E1
2.297075431E0,9.110287666E0,-5.548635483E0,-6.685987115E-1,1.068792409E1
2.299520274E0,9.069587708E0,-5.584547043E0,-7.212688923E-1,1.067543047E1
2.301965066E0,9.036070824E0,-5.601305485E0,-8.529443145E-1,1.066549169E1
2.304410691E0,9.026494026E0,-5.646793365E0,-1.001378417E0,1.069423342E1
2.306856316E0,8.976217270E0,-5.713827610E0,-1.207270861E0,1.070877236E1
2.309301160E0,8.971429825E0,-5.768892288E0,-1.427528024E0,1.076125028E1
2.311745952E0,8.971429825E0,-5.816774368E0,-1.674120069E0,1.082238861E1
2.314191577E0,8.949882507E0,-5.893385410E0,-1.963806152E0,1.089444460E1
2.316637202E0,8.933123589E0,-5.941267490E0,-2.279827118E0,1.096799745E1
2.319082045E0,8.820601463E0,-5.998725891E0,-2.507266521E0,1.095783318E1
2.321526837E0,8.600344658E0,-6.070549011E0,-2.658094883E0,1.085739204E1
2.323972462E0,8.293899536E0,-6.151947975E0,-2.784982204E0,1.069538963E1
2.326418087E0,7.999426365E0,-6.183071136E0,-2.909475327E0,1.052075271E1
2.328862931E0,7.767198086E0,-6.183071136E0,-3.122550011E0,1.040721160E1
2.331307722E0,7.609187603E0,-6.166312695E0,-3.314077854E0,1.033954836E1
2.333753347E0,7.532576561E0,-6.120824814E0,-3.541517258E0,1.033182223E1
2.336198972E0,7.568488121E0,-6.058578491E0,-3.754591942E0,1.039641027E1
2.338643816E0,7.702557564E0,-5.991543293E0,-3.946119785E0,1.052615055E1
2.341088608E0,7.839021206E0,-5.900568008E0,-4.096948147E0,1.063258860E1
2.343534233E0,7.975485325E0,-5.802409649E0,-4.228623390E0,1.073114997E1
2.345979858E0,8.143072128E0,-5.682704926E0,-4.317204952E0,1.082778914E1
2.348424702E0,8.272352219E0,-5.603699207E0,-4.343540668E0,1.089493468E1
2.350869545E0,8.341781616E0,-5.495965004E0,-4.343540668E0,1.089299304E1
2.353315170E0,8.372904778E0,-5.393018723E0,-4.317204952E0,1.085488111E1
2.355760743E0,8.399239540E0,-5.328377724E0,-4.226229668E0,1.080739799E1
2.358205587E0,8.336993217E0,-5.232614517E0,-4.152012825E0,1.068292662E1
2.360650431E0,8.241230011E0,-5.158396721E0,-4.013154984E0,1.051819099E1
2.363096056E0,8.090401649E0,-5.105726719E0,-3.883873463E0,1.032509163E1
2.365541681E0,7.850991726E0,-5.029115677E0,-3.666010380E0,1.001846833E1
2.367986524E0,7.563700199E0,-4.959686756E0,-3.445753098E0,9.678908401E0
2.370431316E0,7.154309273E0,-4.895046234E0,-3.218313694E0,9.246791975E0
2.372876941E0,6.752100468E0,-4.818434715E0,-2.998056889E0,8.820233497E0
2.375322566E0,6.361862659E0,-4.760976791E0,-2.770617485E0,8.415255062E0
2.377767410E0,6.014718056E0,-4.715488911E0,-2.581483364E0,8.067014647E0
2.380212202E0,5.720243931E0,-4.646059990E0,-2.461778641E0,7.769647234E0
2.382657827E0,5.504775047E0,-4.614936829E0,-2.411502361E0,7.577303867E0
2.385103452E0,5.387464046E0,-4.576631069E0,-2.425867081E0,7.473630436E0
2.387548295E0,5.330005646E0,-4.557478428E0,-2.526419163E0,7.454016608E0
2.389993087E0,5.346764565E0,-4.523961067E0,-2.705976963E0,7.508423694E0
2.392438712E0,5.394646645E0,-4.516778946E0,-2.954963207E0,7.631206459E0
2.394884337E0,5.499986649E0,-4.526354790E0,-3.208737373E0,7.812409126E0
2.397329181E0,5.581386089E0,-4.538325310E0,-3.503211498E0,8.001297276E0
2.399773972E0,5.667573452E0,-4.557478428E0,-3.847961903E0,8.227928613E0
2.402219597E0,5.753761292E0,-4.569448948E0,-4.108918667E0,8.418363576E0
2.404665222E0,5.816008091E0,-4.631695271E0,-4.336358070E0,8.607122197E0
2.407110066E0,5.902195454E0,-4.665212631E0,-4.590132713E0,8.813026631E0
2.409554858E0,6.017112255E0,-4.677183151E0,-4.812783718E0,9.013576939E0
2.412000483E0,6.155970097E0,-4.734642029E0,-5.025858402E0,9.250516507E0
2.414446108E0,6.361862659E0,-4.765764713E0,-5.262874126E0,9.533291870E0
2.416890952E0,6.493537426E0,-4.808858871E0,-5.487919807E0,9.767723162E0
2.419335743E0,6.558178425E0,-4.847164154E0,-5.679447651E0,9.937848369E0
2.421781368E0,6.539025784E0,-4.851952553E0,-5.794363976E0,9.993745827E0
2.424226993E0,6.381015301E0,-4.895046234E0,-5.906887054E0,9.978484283E0
2.426671837E0,6.132029057E0,-4.926169395E0,-5.957163334E0,9.866950909E0
2.429116681E0,5.823190212E0,-4.904623032E0,-6.009833336E0,9.699637522E0
2.431562306E0,5.459287167E0,-4.938139915E0,-6.064897537E0,9.537925578E0
2.434007879E0,5.140872002E0,-4.904623032E0,-6.033773899E0,9.321497706E0
2.436452722E0,4.944556236E0,-4.854346275E0,-6.017015457E0,9.177025071E0
2.438897566E0,4.973285198E0,-4.789705753E0,-6.072079659E0,9.194835412E0
2.441343191E0,5.224665642E0,-4.686759949E0,-6.155873299E0,9.335824867E0
2.443788764E0,5.607721329E0,-4.576631069E0,-6.289942741E0,9.589341486E0
2.446233608E0,6.036265373E0,-4.485655308E0,-6.457529545E0,9.912481577E0
2.448678452E0,6.366650581E0,-4.382709026E0,-6.582022667E0,1.015211310E1
2.451124077E0,6.474385262E0,-4.339615345E0,-6.651451588E0,1.024654742E1
2.453569702E0,6.364256859E0,-4.282156944E0,-6.632298470E0,1.014041500E1
2.456014545E0,6.038659096E0,-4.246245384E0,-6.562870026E0,9.877614414E0
2.458459337E0,5.657997608E0,-4.210334301E0,-6.435982704E0,9.547864957E0
2.460904962E0,5.330005646E0,-4.186393261E0,-6.359371662E0,9.293893514E0
2.463350587E0,5.114537239E0,-4.157663822E0,-6.254031181E0,9.086119394E0
2.465795431E0,5.124113083E0,-4.090629101E0,-6.268395424E0,9.070973626E0
2.468240222E0,5.322823524E0,-4.045141220E0,-6.318671703E0,9.198979827E0
2.470685847E0,5.703485012E0,-3.970924377E0,-6.433588505E0,9.470429913E0
2.473131472E0,6.129634857E0,-3.908677816E0,-6.591598988E0,9.813223882E0
2.475576316E0,6.522267342E0,-3.872766256E0,-6.701727390E0,1.012182986E1
2.478021108E0,6.718583107E0,-3.865584135E0,-6.792703629E0,1.030645052E1
2.480466733E0,6.740129948E0,-3.877554655E0,-6.795097828E0,1.032657428E1
2.482912358E0,6.565360546E0,-3.882342577E0,-6.725668430E0,1.016912773E1
2.485357202E0,6.290039539E0,-3.901495457E0,-6.637087345E0,9.941689627E0
2.487801993E0,6.012324333E0,-3.935012817E0,-6.493441105E0,9.684892727E0
2.490247618E0,5.775308132E0,-3.946983337E0,-6.378524303E0,9.466701314E0
2.492693243E0,5.677150249E0,-3.939800978E0,-6.352189064E0,9.386286412E0
2.495138087E0,5.727426052E0,-3.939800978E0,-6.443165302E0,9.478386996E0
2.497582879E0,5.916560173E0,-3.915860176E0,-6.684968948E0,9.748253948E0
2.500028504E0,6.187093258E0,-3.863189936E0,-6.955502033E0,1.007885747E1
2.502474129E0,6.534237862E0,-3.810519934E0,-7.295464039E0,1.050904954E1
2.504918972E0,6.850258827E0,-3.750667334E0,-7.640214443E0,1.092549441E1
2.507363764E0,7.178250313E0,-3.690814734E0,-7.937082767E0,1.132018877E1
2.509809389E0,7.422448158E0,-3.681238413E0,-8.190856934E0,1.165051030E1
2.512255014E0,7.642704964E0,-3.647721052E0,-8.327321053E0,1.187691391E1
2.514699858E0,7.745651722E0,-3.628568411E0,-8.399143219E0,1.198779530E1
2.517144649E0,7.771986485E0,-3.607021332E0,-8.329714775E0,1.194983368E1
2.519590274E0,7.697769642E0,-3.585474253E0,-8.126216888E0,1.175358175E1
2.522035899E0,7.575670719E0,-3.549562931E0,-7.829348087E0,1.145813577E1
2.524480743E0,7.467936039E0,-3.537592649E0,-7.513327122E0,1.116846967E1
2.526925535E0,7.400901318E0,-3.487316370E0,-7.192518234E0,1.089343997E1
2.529371160E0,7.415265560E0,-3.437040329E0,-6.960289955E0,1.073522453E1
2.531816785E0,7.453571796E0,-3.391552210E0,-6.730456829E0,1.059987774E1
2.534261629E0,7.499059200E0,-3.365217209E0,-6.548505306E0,1.050921013E1
2.536706472E0,7.525394440E0,-3.341276407E0,-6.376130104E0,1.041396776E1
2.539152097E0,7.479906559E0,-3.350852728E0,-6.227695942E0,1.029375601E1
2.541597670E0,7.384142876E0,-3.365217209E0,-6.105597019E0,1.015522367E1
2.544042514E0,7.235708714E0,-3.410705328E0,-5.995468616E0,9.996701224E0
2.546487358E0,7.089668751E0,-3.449010849E0,-5.870975494E0,9.829925335E0
2.548932983E0,6.953204632E0,-3.475345850E0,-5.746481895E0,9.666805967E0
2.551378556E0,6.890958309E0,-3.492104530E0,-5.626777172E0,9.557234004E0
2.553823399E0,6.934051991E0,-3.513651609E0,-5.554954052E0,9.554283812E0
2.556268243E0,7.020239830E0,-3.549562931E0,-5.593260288E0,9.652342976E0
2.558713868E0,7.070515633E0,-3.563927650E0,-5.633959770E0,9.717781347E0
2.561159493E0,7.084880352E0,-3.563927650E0,-5.689023972E0,9.760230717E0
2.563604337E0,6.974751472E0,-3.597444773E0,-5.732117653E0,9.718330092E0
2.566049129E0,6.819135189E0,-3.616597891E0,-5.772817135E0,9.638765621E0
2.568494754E0,6.598878384E0,-3.618991852E0,-5.815911293E0,9.511420615E0
2.570940379E0,6.445655823E0,-3.635750532E0,-5.964344978E0,9.504660538E0
2.573385222E0,6.330739021E0,-3.650115013E0,-6.191784859E0,9.578089366E0
2.575830014E0,6.258916378E0,-3.671662092E0,-6.464712143E0,9.718417558E0
2.578275639E0,6.177516460E0,-3.714755774E0,-6.672998428E0,9.822933783E0
2.580721264E0,6.053023815E0,-3.745879173E0,-6.912408352E0,9.922303025E0
2.583166108E0,5.976412773E0,-3.753061295E0,-7.144636154E0,1.004235055E1
2.585610899E0,5.911771774E0,-3.765031815E0,-7.448686600E0,1.022777797E1
2.588056524E0,5.873466015E0,-3.760243654E0,-7.721613407E0,1.040482335E1
2.590502149E0,5.827978611E0,-3.721938133E0,-7.980176449E0,1.055942112E1
2.592946993E0,5.753761292E0,-3.666873932E0,-8.205221176E0,1.067133487E1
2.595391785E0,5.708273888E0,-3.599838972E0,-8.389567375E0,1.076698993E1
2.597837410E0,5.624480247E0,-3.513651609E0,-8.466178894E0,1.075438100E1
2.600283035E0,5.557445049E0,-3.465769529E0,-8.514060020E0,1.074178625E1
2.602727879E0,5.516745567E0,-3.396340609E0,-8.619400978E0,1.078256391E1
2.605172670E0,5.523927689E0,-3.329305887E0,-8.686434746E0,1.081906666E1
2.607618295E0,5.511957169E0,-3.302970886E0,-8.700799942E0,1.081643232E1
2.610063920E0,5.468863487E0,-3.286211967E0,-8.696012497E0,1.078555934E1
2.612508764E0,5.389858246E0,-3.271847486E0,-8.688830376E0,1.073551728E1
2.614953556E0,5.368311882E0,-3.267059326E0,-8.698406219E0,1.073101672E1
2.617399181E0,5.330005646E0,-3.291000366E0,-8.736711502E0,1.075033820E1
2.619844806E0,5.351552486E0,-3.307759047E0,-8.731923103E0,1.076228902E1
2.622289649E0,5.375493526E0,-3.326911926E0,-8.734316826E0,1.078204823E1
2.624734441E0,5.397040844E0,-3.338882208E0,-8.729529381E0,1.079263024E1
2.627180066E0,5.456892967E0,-3.374793768E0,-8.729529381E0,1.083381729E1
2.629625691E0,5.514351845E0,-3.410705328E0,-8.715165138E0,1.086255451E1
2.632070535E0,5.607721329E0,-3.449010849E0,-8.724740982E0,1.092992770E1
2.634515327E0,5.708273888E0,-3.482527971E0,-8.736711502E0,1.100193254E1
2.636960952E0,5.827978611E0,-3.525622129E0,-8.736711502E0,1.107815300E1
2.639406577E0,5.938107014E0,-3.554351091E0,-8.705588341E0,1.112123172E1
2.641851420E0,6.067388058E0,-3.585474253E0,-8.631371498E0,1.114313230E1
2.644296264E0,6.163152218E0,-3.621385813E0,-8.523636818E0,1.112435459E1
2.646741889E0,6.237369061E0,-3.664479494E0,-8.396749496E0,1.108325696E1
2.649187462E0,6.266098499E0,-3.681238413E0,-8.224374771E0,1.097523790E1
2.651632306E0,6.285251141E0,-3.762637854E0,-7.977782249E0,1.083082800E1
2.654077149E0,6.246945858E0,-3.815307856E0,-7.726402283E0,1.064322314E1
2.656522774E0,6.215822697E0,-3.889525175E0,-7.475021839E0,1.047095074E1
2.658968347E0,6.213428020E0,-3.930224657E0,-7.264340401E0,1.033556941E1
2.661413191E0,6.211034298E0,-4.006835938E0,-7.041689396E0,1.020867625E1
2.663858035E0,6.232581139E0,-4.088234901E0,-6.790308952E0,1.008300689E1
2.666303660E0,6.299615860E0,-4.164845943E0,-6.553293705E0,9.998837937E0
2.668749285E0,6.436079502E0,-4.263004303E0,-6.342612743E0,9.991249244E0
2.671194129E0,6.584513664E0,-4.363556385E0,-6.151084900E0,1.001160776E1
2.673638920E0,6.723371029E0,-4.480867386E0,-5.887733936E0,9.997364724E0
2.676084545E0,6.862229347E0,-4.590995789E0,-5.595654011E0,9.973904840E0
2.678530170E0,6.981934071E0,-4.696335793E0,-5.334697247E0,9.963030059E0
2.680975014E0,7.068121433E0,-4.787312031E0,-5.080922604E0,9.934408467E0
2.683419806E0,7.147126675E0,-4.899834156E0,-4.755325794E0,9.884478634E0
2.685865431E0,7.238102436E0,-5.019539356E0,-4.463244915E0,9.874535807E0
2.688311056E0,7.355413437E0,-5.088968277E0,-4.192712307E0,9.878185129E0
2.690755899E0,7.439206600E0,-5.146426201E0,-3.977243423E0,9.881597175E0
2.693200691E0,7.527788639E0,-5.220643997E0,-3.783321381E0,9.911419990E0
2.695646316E0,7.637917042E0,-5.266131401E0,-3.661222458E0,9.973688714E0
2.698091941E0,7.669040203E0,-5.304437160E0,-3.582216740E0,9.989169535E0
2.700536785E0,7.685799122E0,-5.304437160E0,-3.596581459E0,1.000719541E1
2.702981577E0,7.587641239E0,-5.347530842E0,-3.630098820E0,9.967246516E0
2.705427202E0,7.376960278E0,-5.364289284E0,-3.682768822E0,9.836560814E0
2.707872827E0,7.163885593E0,-5.388230324E0,-3.742621422E0,9.713984657E0
2.710317670E0,6.950810432E0,-5.421747684E0,-3.804868221E0,9.601361143E0
2.712762462E0,6.792799950E0,-5.467236042E0,-3.840779305E0,9.528084108E0
2.715208087E0,6.720977306E0,-5.555817127E0,-3.804868221E0,9.513971941E0
2.717653712E0,6.675488949E0,-5.615669727E0,-3.809656143E0,9.519000952E0
2.720098556E0,6.677883625E0,-5.689887047E0,-3.812050343E0,9.565598368E0
2.722543347E0,6.737736225E0,-5.735374928E0,-3.800079823E0,9.629757092E0
2.724988972E0,6.838288307E0,-5.807198048E0,-3.764168739E0,9.729064828E0
2.727434597E0,6.931658268E0,-5.852685928E0,-3.618128300E0,9.766917186E0
2.729879441E0,7.044180870E0,-5.862262249E0,-3.481664658E0,9.803498946E0
2.732324233E0,7.214161873E0,-5.881414890E0,-3.314077854E0,9.880196590E0
2.734769858E0,7.338654518E0,-5.900568008E0,-3.000451088E0,9.883079464E0
2.737215483E0,7.427236080E0,-5.912538528E0,-2.591060162E0,9.840505089E0
2.739660327E0,7.558911800E0,-5.883808613E0,-2.243915558E0,9.838267552E0
2.742105118E0,7.736074924E0,-5.869444370E0,-1.954229712E0,9.905364517E0
2.744550743E0,8.011396408E0,-5.807198048E0,-1.705243468E0,1.004061138E1
2.746996368E0,8.394452095E0,-5.742557526E0,-1.523291945E0,1.028417285E1
2.749441212E0,8.777507782E0,-5.706645966E0,-1.365281343E0,1.055814587E1
2.751886004E0,9.043252945E0,-5.687492847E0,-1.212059140E0,1.075160853E1
2.754331629E0,9.191686630E0,-5.689887047E0,-1.063624978E0,1.086246822E1
2.756777254E0,9.182110786E0,-5.749739170E0,-9.080085754E-1,1.087175876E1
2.759222097E0,9.091135025E0,-5.800015450E0,-8.026682734E-1,1.081356517E1
2.761666889E0,8.911576271E0,-5.867050171E0,-7.092983723E-1,1.069306193E1
2.764112514E0,8.672167778E0,-5.890991211E0,-6.925396919E-1,1.050665897E1
2.766558139E0,8.466274261E0,-5.931690693E0,-7.332393527E-1,1.036341615E1
2.769002983E0,8.339387894E0,-5.996331692E0,-8.553383946E-1,1.030693883E1
2.771447774E0,8.317840576E0,-6.022666931E0,-1.051654577E0,1.032303086E1
2.773893399E0,8.372904778E0,-6.077730656E0,-1.348522782E0,1.043373653E1
2.776339024E0,8.521338463E0,-6.139977455E0,-1.726790428E0,1.064398128E1
2.778783868E0,8.664984703E0,-6.171100616E0,-2.179275036E0,1.085880667E1
2.781228712E0,8.772719383E0,-6.214194775E0,-2.617394924E0,1.106469965E1
2.783674337E0,8.842148781E0,-6.247711658E0,-3.048332691E0,1.124765879E1
2.786119910E0,8.806236267E0,-6.295593739E0,-3.436176777E0,1.135744727E1
2.788564754E0,8.645832062E0,-6.343475819E0,-3.680375099E0,1.133733912E1
2.791009597E0,8.360934258E0,-6.365022659E0,-3.802474022E0,1.117486214E1
2.793455222E0,8.056883812E0,-6.386569977E0,-3.926967144E0,1.100557694E1
2.795900795E0,7.795927525E0,-6.376993179E0,-4.056248665E0,1.085797777E1
2.798345639E0,7.673828602E0,-6.329111099E0,-4.252564430E0,1.081802186E1
2.800790483E0,7.654675484E0,-6.252500534E0,-4.456063271E0,1.084178581E1
2.803236108E0,7.760015965E0,-6.154342175E0,-4.597314835E0,1.091920689E1
2.805681681E0,7.865356922E0,-6.063366413E0,-4.731384754E0,1.100064787E1
2.808126524E0,7.989849567E0,-5.960420132E0,-4.846301079E0,1.108381425E1
2.810571368E0,8.102371216E0,-5.862262249E0,-4.954035759E0,1.116051111E1
2.813016993E0,8.178982735E0,-5.773680210E0,-4.980370522E0,1.118191541E1
2.815462618E0,8.200530052E0,-5.687492847E0,-5.001917839E0,1.116312905E1
2.817907410E0,8.147859573E0,-5.579758167E0,-4.910941601E0,1.102899199E1
2.820352254E0,8.054490089E0,-5.428930283E0,-4.819966316E0,1.084343903E1
2.822797879E0,7.965908527E0,-5.328377724E0,-4.693078518E0,1.067109619E1
2.825243504E0,7.846203327E0,-5.213461399E0,-4.542250633E0,1.045825641E1
2.827688347E0,7.709740162E0,-5.079391956E0,-4.367481709E0,1.021348190E1
2.830133139E0,7.575670719E0,-4.971657276E0,-4.159194946E0,9.970309199E0
2.832578764E0,7.479906559E0,-4.883075714E0,-3.977243423E0,9.778133555E0
2.835024389E0,7.353019238E0,-4.792099953E0,-3.795291901E0,9.562183562E0
2.837469233E0,7.197402477E0,-4.677183151E0,-3.642069340E0,9.324339855E0
2.839914024E0,7.080091953E0,-4.612542152E0,-3.507999897E0,9.149279231E0
2.842359649E0,6.941234112E0,-4.511990547E0,-3.421812057E0,8.958101777E0
2.844805274E0,6.776041508E0,-4.444955826E0,-3.304501534E0,8.751691333E0
2.847250118E0,6.567755222E0,-4.387497425E0,-3.244648933E0,8.538927861E0
2.849694910E0,6.385803699E0,-4.368344307E0,-3.196766853E0,8.371394101E0
2.852140535E0,6.148787498E0,-4.356373787E0,-3.148884773E0,8.167071421E0
2.854586160E0,5.909377575E0,-4.349191666E0,-3.122550011E0,7.974116254E0
2.857031004E0,5.705879211E0,-4.358768463E0,-3.117761612E0,7.827921663E0
2.859475795E0,5.578992367E0,-4.351585865E0,-3.148884773E0,7.744477431E0
2.861921420E0,5.509562969E0,-4.349191666E0,-3.273378372E0,7.745047335E0
2.864367045E0,5.562233448E0,-4.339615345E0,-3.433782578E0,7.846117834E0
2.866811889E0,5.722638130E0,-4.313280106E0,-3.637281418E0,8.036341739E0
2.869256681E0,5.978806496E0,-4.327644825E0,-3.867114544E0,8.332419321E0
2.871702306E0,6.194275856E0,-4.320462227E0,-4.061036587E0,8.574815764E0
2.874147931E0,6.469596863E0,-4.365950108E0,-4.254958630E0,8.889425001E0
2.876592774E0,6.670701027E0,-4.421014786E0,-4.456063271E0,9.159701076E0
2.879037566E0,6.828711510E0,-4.444955826E0,-4.635620594E0,9.374321920E0
2.881483191E0,6.919687748E0,-4.495231628E0,-4.786448479E0,9.539354012E0
2.883928816E0,6.948416710E0,-4.543113708E0,-4.879818439E0,9.629797762E0
2.886373660E0,6.943628788E0,-4.612542152E0,-4.987553120E0,9.714175826E0
2.888818452E0,6.912505150E0,-4.641272068E0,-5.090498924E0,9.758960660E0
2.891264077E0,6.823923588E0,-4.658030510E0,-5.186263084E0,9.755024661E0
2.893709702E0,6.709006786E0,-4.672394753E0,-5.253298283E0,9.717982693E0
2.896154545E0,6.546208382E0,-4.689153671E0,-5.296391487E0,9.638089495E0
2.898599337E0,6.352286339E0,-4.681971550E0,-5.339485645E0,9.527985426E0
2.901044962E0,6.148787498E0,-4.672394753E0,-5.387367725E0,9.416081533E0
2.903490587E0,5.914165974E0,-4.629301548E0,-5.435249805E0,9.270907854E0
2.905935431E0,5.698697090E0,-4.610148430E0,-5.499890327E0,9.163918959E0
2.908380222E0,5.526322365E0,-4.540719986E0,-5.550166130E0,9.053326513E0
2.910825847E0,5.454499245E0,-4.500020027E0,-5.617201328E0,9.030763701E0
2.913271472E0,5.495198727E0,-4.399467945E0,-5.736905575E0,9.081002853E0
2.915716316E0,5.679543972E0,-4.315674305E0,-5.866187096E0,9.235497576E0
2.918161108E0,5.938107014E0,-4.222304344E0,-6.036168098E0,9.461727865E0
2.920606733E0,6.246945858E0,-4.128934383E0,-6.222908020E0,9.736375913E0
2.923052358E0,6.524661064E0,-4.025988579E0,-6.376130104E0,9.971701016E0
2.925497202E0,6.682671547E0,-3.944589376E0,-6.462317467E0,1.009848659E1
2.927941993E0,6.665913105E0,-3.908677816E0,-6.462317467E0,1.007341585E1
2.930387618E0,6.507902622E0,-3.856007576E0,-6.402465343E0,9.910254963E0
2.932833243E0,6.230186939E0,-3.839248896E0,-6.282760620E0,9.645109766E0
2.935278087E0,5.918954372E0,-3.808125496E0,-6.110384941E0,9.320549597E0
2.937722879E0,5.669967651E0,-3.786578894E0,-5.959557056E0,9.055552617E0
2.940168504E0,5.514351845E0,-3.769819975E0,-5.818305016E0,8.858458792E0
2.942614129E0,5.519139767E0,-3.721938133E0,-5.693811893E0,8.759750060E0
2.945058972E0,5.638844490E0,-3.686026573E0,-5.657900810E0,8.797454215E0
2.947503764E0,5.856707573E0,-3.638144493E0,-5.700994492E0,8.946421471E0
2.949949389E0,6.086541176E0,-3.597444773E0,-5.756058693E0,9.117006310E0
2.952395014E0,6.268492699E0,-3.571109772E0,-5.849428654E0,9.287768370E0
2.954839858E0,6.349892139E0,-3.592656851E0,-5.947586536E0,9.412868800E0
2.957284649E0,6.282856941E0,-3.599838972E0,-6.019409657E0,9.416285073E0
2.959730274E0,6.112875938E0,-3.626173973E0,-6.081655979E0,9.354300047E0
2.962175899E0,5.854313850E0,-3.657297373E0,-6.122355461E0,9.226703156E0
2.964620743E0,5.605327129E0,-3.678844213E0,-6.172631741E0,9.113449927E0
2.967065535E0,5.444922447E0,-3.693208933E0,-6.201361179E0,9.041230732E0
2.969511160E0,5.365917206E0,-3.678844213E0,-6.292336464E0,9.050992232E0
2.971956785E0,5.416193485E0,-3.654903412E0,-6.440771103E0,9.174802626E0
2.974401629E0,5.598145008E0,-3.623780012E0,-6.622722626E0,9.398482010E0
2.976846420E0,5.873466015E0,-3.563927650E0,-6.945925713E0,9.769599139E0
2.979292045E0,6.158364296E0,-3.520833731E0,-7.254764557E0,1.014659203E1
2.981737670E0,6.460020542E0,-3.482527971E0,-7.599514484E0,1.056468111E1
2.984182514E0,6.732947826E0,-3.415493250E0,-7.953841209E0,1.096639278E1
2.986627306E0,6.957993031E0,-3.367611408E0,-8.284227371E0,1.133061767E1
2.989072931E0,7.149521351E0,-3.329305887E0,-8.547577858E0,1.163017715E1
2.991518556E0,7.288378716E0,-3.276635647E0,-8.729529381E0,1.183475765E1
2.993963399E0,7.388930798E0,-3.259876966E0,-8.839657784E0,1.197341413E1
2.996408191E0,7.412871838E0,-3.216783285E0,-8.815716743E0,1.195889733E1
2.998853816E0,7.360201836E0,-3.173689365E0,-8.705588341E0,1.183351780E1
3.001299441E0,7.276408195E0,-3.152142525E0,-8.406326294E0,1.155631604E1
3.003744285E0,7.171067715E0,-3.125807524E0,-8.080728531E0,1.124691328E1
3.006189077E0,7.084880352E0,-3.077925682E0,-7.700066566E0,1.090688687E1
3.008634702E0,7.099244595E0,-3.025255442E0,-7.350528717E0,1.065747234E1
3.011080327E0,7.159097195E0,-2.977373362E0,-7.041689396E0,1.047391113E1
3.013525170E0,7.216555595E0,-2.960614681E0,-6.792703629E0,1.034334262E1
3.015969962E0,7.309925556E0,-2.927097321E0,-6.586811066E0,1.026591401E1
3.018415587E0,7.343442917E0,-2.951038361E0,-6.445559025E0,1.020686105E1
3.020861212E0,7.353019238E0,-2.965402842E0,-6.337824821E0,1.015029701E1
3.023306056E0,7.338654518E0,-2.982161522E0,-6.289942741E0,1.011496501E1
3.025750847E0,7.290772438E0,-3.061166763E0,-6.239666462E0,1.007271276E1
3.028196472E0,7.206979275E0,-3.132989883E0,-6.198966980E0,1.000916418E1
3.030642097E0,7.096850872E0,-3.223965645E0,-6.165449619E0,9.938411130E0
3.033086941E0,6.946022511E0,-3.286211967E0,-6.134325981E0,9.832414406E0
3.035531733E0,6.850258827E0,-3.331700087E0,-6.074473858E0,9.742972037E0
3.037977358E0,6.807164669E0,-3.374793768E0,-6.093626499E0,9.739558908E0
3.040422983E0,6.780829430E0,-3.405917168E0,-6.105597019E0,9.739519211E0
3.042867827E0,6.788012028E0,-3.427463770E0,-6.148690701E0,9.779111029E0
3.045312670E0,6.764070988E0,-3.460981369E0,-6.198966980E0,9.806030797E0
3.047758295E0,6.720977306E0,-3.494498491E0,-6.237272739E0,9.812574936E0
3.050203868E0,6.630001545E0,-3.530410051E0,-6.273184299E0,9.786396521E0
3.052648712E0,6.462414742E0,-3.583080292E0,-6.268395424E0,9.689894213E0
3.055093504E0,6.292433739E0,-3.630962372E0,-6.280365944E0,9.603208135E0
3.057539129E0,6.067388058E0,-3.678844213E0,-6.277972221E0,9.474176893E0
3.059984754E0,5.842343330E0,-3.712361574E0,-6.246849060E0,9.324040284E0
3.062429597E0,5.634056568E0,-3.781790495E0,-6.275578022E0,9.242695076E0
3.064874441E0,5.492804527E0,-3.800943375E0,-6.345006943E0,9.212881483E0
3.067320066E0,5.411405087E0,-3.836854935E0,-6.457529545E0,9.257669719E0
3.069765639E0,5.380281925E0,-3.867978096E0,-6.589205265E0,9.344854957E0
3.072210483E0,5.413799286E0,-3.836854935E0,-6.752003670E0,9.466796293E0
3.074655327E0,5.442528725E0,-3.851219416E0,-6.977049351E0,9.650504005E0
3.077100952E0,5.545474529E0,-3.858401537E0,-7.170970917E0,9.852023856E0
3.079546524E0,5.617297649E0,-3.822490215E0,-7.434322357E0,1.007147523E1
3.081991368E0,5.689120770E0,-3.827278376E0,-7.645002842E0,1.026938281E1
3.084436212E0,5.760943890E0,-3.796154976E0,-7.855683327E0,1.045519142E1
3.086881837E0,5.842343330E0,-3.786578894E0,-8.085515976E0,1.066989803E1
3.089327410E0,5.935712814E0,-3.757849693E0,-8.233950615E0,1.082368069E1
3.091772254E0,5.985989094E0,-3.755455256E0,-8.344079971E0,1.093431206E1
3.094217045E0,5.981200695E0,-3.753061295E0,-8.387172699E0,1.096379937E1
3.096662670E0,5.933318615E0,-3.762637854E0,-8.423084259E0,1.096859434E1
3.099108295E0,5.849524975E0,-3.800943375E0,-8.413508415E0,1.092937495E1
3.101553139E0,5.744184971E0,-3.827278376E0,-8.435054779E0,1.089926006E1
3.103997983E0,5.689120770E0,-3.817702055E0,-8.420690536E0,1.085582669E1
3.106443608E0,5.590962887E0,-3.839248896E0,-8.415902138E0,1.080861262E1
3.108889181E0,5.574203968E0,-3.853613615E0,-8.403932571E0,1.079574779E1
3.111334024E0,5.598145008E0,-3.867978096E0,-8.399143219E0,1.080953694E1
3.113778868E0,5.689120770E0,-3.879948616E0,-8.387172699E0,1.085194740E1
3.116224493E0,5.837554455E0,-3.844037056E0,-8.425478935E0,1.094725345E1
3.118670066E0,6.041053295E0,-3.848825216E0,-8.468572617E0,1.109164111E1
3.121114910E0,6.282856941E0,-3.839248896E0,-8.454208374E0,1.121105538E1
3.123559754E0,6.460020542E0,-3.820096016E0,-8.408720016E0,1.127082833E1
3.126005379E0,6.630001545E0,-3.820096016E0,-8.351262093E0,1.132667792E1
3.128450952E0,6.744918346E0,-3.846431017E0,-8.236345291E0,1.131929056E1
3.130895795E0,6.766465187E0,-3.851219416E0,-8.073545456E0,1.121601883E1
3.133340639E0,6.740129948E0,-3.879948616E0,-7.905959129E0,1.108997488E1
3.135786264E0,6.673095226E0,-3.930224657E0,-7.702461243E0,1.092267252E1
3.138231837E0,6.584513664E0,-3.956559896E0,-7.463051319E0,1.071015039E1
3.140676681E0,6.495932102E0,-3.963742018E0,-7.252370834E0,1.051214856E1
3.143121524E0,6.450444221E0,-3.990077019E0,-7.072813034E0,1.037080660E1
3.145567149E0,6.462414742E0,-4.021200180E0,-6.926773071E0,1.029140614E1
3.148012722E0,6.488749504E0,-4.071476460E0,-6.783127308E0,1.023189165E1
3.150457566E0,6.546208382E0,-4.085840702E0,-6.622722626E0,1.016894259E1
3.152902410E0,6.543814182E0,-4.143299103E0,-6.457529545E0,1.008405272E1
3.155348035E0,6.522267342E0,-4.172028542E0,-6.237272739E0,9.942301778E0
3.157793608E0,6.522267342E0,-4.253427982E0,-6.043350697E0,9.856658081E0
3.160238452E0,6.531843662E0,-4.322856903E0,-5.823093414E0,9.760148070E0
3.162683295E0,6.541419506E0,-4.413832188E0,-5.653112411E0,9.707201640E0
3.165128920E0,6.574937344E0,-4.497625828E0,-5.440037727E0,9.646369765E0
3.167574493E0,6.584513664E0,-4.552690029E0,-5.219780445E0,9.556616273E0
3.170019337E0,6.639577866E0,-4.653242111E0,-4.980370522E0,9.515290164E0
3.172464181E0,6.673095226E0,-4.744217873E0,-4.776872158E0,9.479256866E0
3.174909806E0,6.749706745E0,-4.828011513E0,-4.623650074E0,9.499809278E0
3.177355379E0,6.816740990E0,-4.899834156E0,-4.465639591E0,9.508852162E0
3.179800222E0,6.893352032E0,-4.952504158E0,-4.379452229E0,9.551188486E0
3.182245066E0,6.974751472E0,-4.983627796E0,-4.300446510E0,9.590492391E0
3.184690691E0,7.051362514E0,-5.038692474E0,-4.278899670E0,9.665356566E0
3.187136264E0,7.101639271E0,-5.053056717E0,-4.274111748E0,9.707455575E0
3.189581108E0,7.092062473E0,-5.081785679E0,-4.274111748E0,9.715447856E0
3.192025952E0,7.051362514E0,-5.136850357E0,-4.240593910E0,9.700081526E0
3.194471577E0,6.967569828E0,-5.220643997E0,-4.195106506E0,9.664422986E0
3.196917149E0,6.804770470E0,-5.285284519E0,-4.070612907E0,9.529376844E0
3.199361993E0,6.622818947E0,-5.359501362E0,-3.948513985E0,9.390247512E0
3.201806837E0,6.452837944E0,-5.460053444E0,-3.812050343E0,9.272703433E0
3.204252462E0,6.302010059E0,-5.548635483E0,-3.670798302E0,9.163920923E0
3.206698035E0,6.170334816E0,-5.632428646E0,-3.584610939E0,9.091024133E0
3.209142879E0,6.112875938E0,-5.699463367E0,-3.553487778E0,9.081762511E0
3.211587722E0,6.127240658E0,-5.752133369E0,-3.570246696E0,9.131088536E0
3.214033347E0,6.201457500E0,-5.783257008E0,-3.591793060E0,9.208969222E0
3.216478920E0,6.337921619E0,-5.800015450E0,-3.589399338E0,9.310919250E0
3.218923764E0,6.550996304E0,-5.785650730E0,-3.584610939E0,9.446625986E0
3.221368608E0,6.764070988E0,-5.778468609E0,-3.529546738E0,9.570844057E0
3.223814233E0,7.032210350E0,-5.732980728E0,-3.405053616E0,9.690894725E0
3.226259806E0,7.252467155E0,-5.677916527E0,-3.172825813E0,9.741860170E0
3.228704649E0,7.434418678E0,-5.630034447E0,-2.868775368E0,9.756932974E0
3.231149493E0,7.618763924E0,-5.582152367E0,-2.509660721E0,9.772634532E0
3.233595118E0,7.805504322E0,-5.522299767E0,-2.167304516E0,9.804024750E0
3.236040691E0,7.987455845E0,-5.440900803E0,-1.793825150E0,9.829580921E0
3.238485535E0,8.176589012E0,-5.371471882E0,-1.417951584E0,9.885337867E0
3.240930379E0,8.423180580E0,-5.302042961E0,-1.130659699E0,1.001698667E1
3.243376004E0,8.710473061E0,-5.237402439E0,-8.960380554E-1,1.020321564E1
3.245821577E0,9.000158310E0,-5.165579319E0,-7.092983723E-1,1.040140200E1
3.248266420E0,9.282662392E0,-5.124879837E0,-5.728347301E-1,1.061886783E1
3.250711264E0,9.581924438E0,-5.084179878E0,-4.914354086E-1,1.085834563E1
3.253156889E0,9.814152718E0,-5.055450916E0,-4.962235987E-1,1.105085587E1
3.255602462E0,1.001765060E1,-5.036297798E0,-5.369232893E-1,1.122523522E1
3.258047306E0,1.013017368E1,-5.079391956E0,-6.350812912E-1,1.135006475E1
3.260492149E0,1.022114849E1,-5.093756199E0,-7.523921132E-1,1.144483825E1
3.262937774E0,1.021157265E1,-5.124879837E0,-9.008262753E-1,1.146089426E1
3.265383347E0,1.017566204E1,-5.187126160E0,-1.044472218E0,1.146914548E1
3.267828191E0,1.007510853E1,-5.249372959E0,-1.204876900E0,1.142433616E1
3.270273035E0,9.897945404E0,-5.328377724E0,-1.355705023E0,1.132249392E1
3.272718660E0,9.687264442E0,-5.397806644E0,-1.537656546E0,1.119570438E1
3.275164233E0,9.455038071E0,-5.469629765E0,-1.722002149E0,1.105802361E1
3.277609077E0,9.220416069E0,-5.531876564E0,-1.906347752E0,1.092025149E1
3.280053920E0,9.028887749E0,-5.570181847E0,-2.076328754E0,1.081012862E1
3.282499545E0,8.902000427E0,-5.589334965E0,-2.277432919E0,1.075513727E1
3.284945118E0,8.782295227E0,-5.586940765E0,-2.490507603E0,1.070258122E1
3.287389962E0,8.729625702E0,-5.586940765E0,-2.670065403E0,1.070278101E1
3.289834754E0,8.676955223E0,-5.591728687E0,-2.830469608E0,1.070366946E1
3.292280379E0,8.614708900E0,-5.591728687E0,-2.899898529E0,1.067192816E1
3.294726004E0,8.447121620E0,-5.630034447E0,-2.830469608E0,1.053862941E1
3.297170847E0,8.212500572E0,-5.661157608E0,-2.734705925E0,1.034275049E1
3.299615691E0,7.973090649E0,-5.653975487E0,-2.713159084E0,1.014390682E1
3.302061316E0,7.867750645E0,-5.627640247E0,-2.892716408E0,1.009651639E1
3.304506889E0,7.867750645E0,-5.551029205E0,-3.158461571E0,1.013367184E1
3.306951733E0,7.970696926E0,-5.493570805E0,-3.405053616E0,1.026185752E1
3.309396524E0,8.121524811E0,-5.390625000E0,-3.622916698E0,1.039920807E1
3.311842149E0,8.315446854E0,-5.314013481E0,-3.888661385E0,1.060693561E1
3.314287774E0,8.504580498E0,-5.237402439E0,-4.125677586E0,1.080645591E1
3.316732618E0,8.662590981E0,-5.156002998E0,-4.353116512E0,1.098064082E1
3.319177410E0,8.777507782E0,-5.057844639E0,-4.518309593E0,1.109240987E1
3.321623035E0,8.770325661E0,-4.930957794E0,-4.633225918E0,1.107699144E1
3.324068660E0,8.684137344E0,-4.799282551E0,-4.714625835E0,1.098521967E1
3.326513504E0,8.504580498E0,-4.660424232E0,-4.745748997E0,1.079673918E1
3.328958295E0,8.262776375E0,-4.540719986E0,-4.705049038E0,1.053703459E1
3.331403920E0,8.006608009E0,-4.389891148E0,-4.654773235E0,1.024908923E1
3.333849545E0,7.714528084E0,-4.260609627E0,-4.537462711E0,9.912381440E0
3.336294389E0,7.470330238E0,-4.152875423E0,-4.475215435E0,9.647785308E0
3.338739181E0,7.336260796E0,-4.030776501E0,-4.398604393E0,9.455982353E0
3.341184806E0,7.171067715E0,-3.915860176E0,-4.321993828E0,9.243257204E0
3.343630431E0,7.025027752E0,-3.844037056E0,-4.178347588E0,9.032509306E0
3.346075274E0,6.790406227E0,-3.772214174E0,-4.063430786E0,8.766452319E0
3.348520066E0,6.534237862E0,-3.769819975E0,-3.953302383E0,8.516830796E0
3.350965691E0,6.256522179E0,-3.769819975E0,-3.819232941E0,8.242702995E0
3.353411316E0,5.978806496E0,-3.738696814E0,-3.756986141E0,7.989926523E0
3.355856160E0,5.777702332E0,-3.777002335E0,-3.749803543E0,7.855483275E0
3.358300952E0,5.622086048E0,-3.774608374E0,-3.785715103E0,7.758038331E0
3.360746577E0,5.617297649E0,-3.781790495E0,-3.905420303E0,7.817178518E0
3.363192202E0,5.753761292E0,-3.791366816E0,-4.104130745E0,8.020231948E0
3.365637045E0,6.019505978E0,-3.810519934E0,-4.379452229E0,8.362662028E0
3.368081837E0,6.416926861E0,-3.824884415E0,-4.681107998E0,8.815864292E0
3.370527462E0,6.821529388E0,-3.877554655E0,-4.915730000E0,9.259216745E0
3.372973087E0,7.173462391E0,-3.927830458E0,-5.155139923E0,9.667568588E0
3.375417931E0,7.422448158E0,-3.994865417E0,-5.303574085E0,9.958894740E0
3.377862722E0,7.532576561E0,-4.095417500E0,-5.423279285E0,1.014515216E1
3.380308347E0,7.549335480E0,-4.174422741E0,-5.475949287E0,1.021784185E1
3.382753972E0,7.479906559E0,-4.258215904E0,-5.475949287E0,1.020134429E1
3.385198816E0,7.331472874E0,-4.320462227E0,-5.440037727E0,1.010004450E1
3.387643608E0,7.197402477E0,-4.389891148E0,-5.356244087E0,9.988147848E0
3.390089233E0,7.048968792E0,-4.447350025E0,-5.270056725E0,9.861053755E0
3.392534858E0,6.934051991E0,-4.447350025E0,-5.238933086E0,9.762500660E0
3.394979702E0,6.843076229E0,-4.473684788E0,-5.200627804E0,9.689586029E0
3.397424493E0,6.768859386E0,-4.468896866E0,-5.181475163E0,9.624769164E0
3.399870118E0,6.740129948E0,-4.480867386E0,-5.205416203E0,9.623091088E0
3.402315743E0,6.694642067E0,-4.425802708E0,-5.293997765E0,9.614175698E0
3.404760587E0,6.618031025E0,-4.375526905E0,-5.365820408E0,9.577870274E0
3.407205379E0,6.524661064E0,-4.308491707E0,-5.456796169E0,9.534722189E0
3.409651004E0,6.388197422E0,-4.229486942E0,-5.559742451E0,9.466169353E0
3.412096629E0,6.225398540E0,-4.172028542E0,-5.653112411E0,9.387176843E0
3.414541472E0,6.067388058E0,-4.073870182E0,-5.801546574E0,9.330999879E0
3.416986264E0,5.947683334E0,-3.997259378E0,-5.930827618E0,9.302028586E0
3.419431889E0,5.866284370E0,-3.903889656E0,-6.072079659E0,9.301816927E0
3.421877514E0,5.832766533E0,-3.827278376E0,-6.208543301E0,9.338909739E0
3.424322358E0,5.902195454E0,-3.731514692E0,-6.263607502E0,9.380452655E0
3.426767149E0,6.086541176E0,-3.654903412E0,-6.371342182E0,9.539303100E0
3.429212774E0,6.335526943E0,-3.554351091E0,-6.440771103E0,9.708544985E0
3.431658399E0,6.550996304E0,-3.492104530E0,-6.445559025E0,9.831356863E0
3.434103243E0,6.651548386E0,-3.432252169E0,-6.364159584E0,9.824763513E0
3.436548035E0,6.584513664E0,-3.398734808E0,-6.210937500E0,9.668658807E0
3.438993660E0,6.431291103E0,-3.432252169E0,-6.017015457E0,9.452319039E0
3.441439285E0,6.203852177E0,-3.437040329E0,-5.811122894E0,9.168979079E0
3.443884129E0,5.969230175E0,-3.470557690E0,-5.681841850E0,8.942024736E0
3.446328920E0,5.744184971E0,-3.516045570E0,-5.598048210E0,8.757647012E0
3.448774545E0,5.610115528E0,-3.559139252E0,-5.574107170E0,8.672458659E0
3.451220170E0,5.622086048E0,-3.554351091E0,-5.626777172E0,8.712168763E0
3.453665014E0,5.729820251E0,-3.585474253E0,-5.779999733E0,8.893529257E0
3.456109806E0,5.942894936E0,-3.602233171E0,-5.964344978E0,9.157919800E0
3.458555431E0,6.167940617E0,-3.583080292E0,-6.165449619E0,9.428399909E0
3.461001056E0,6.306797981E0,-3.604627371E0,-6.359371662E0,9.654566132E0
3.463445899E0,6.335526943E0,-3.628568411E0,-6.479076385E0,9.761344230E0
3.465890691E0,6.206246376E0,-3.662085533E0,-6.522170067E0,9.719417005E0
3.468336316E0,6.002747536E0,-3.729120255E0,-6.570052147E0,9.649088095E0
3.470781941E0,5.768126011E0,-3.717149734E0,-6.586811066E0,9.511811596E0
3.473226785E0,5.567021847E0,-3.721938133E0,-6.663422108E0,9.446996872E0
3.475671577E0,5.444922447E0,-3.697997093E0,-6.756792068E0,9.432740960E0
3.478117202E0,5.413799286E0,-3.659691572E0,-6.874102592E0,9.484505868E0
3.480562827E0,5.466469765E0,-3.607021332E0,-7.070418835E0,9.637619886E0
3.483007670E0,5.655602932E0,-3.508863211E0,-7.295464039E0,9.875310684E0
3.485452462E0,5.911771774E0,-3.444222689E0,-7.525297642E0,1.017063518E1
3.487898087E0,6.225398540E0,-3.322123528E0,-7.812589645E0,1.052751864E1
3.490343712E0,6.572543144E0,-3.245512247E0,-8.104669571E0,1.092782421E1
3.492788556E0,6.883776188E0,-3.178477526E0,-8.360837936E0,1.128683769E1
3.495233347E0,7.159097195E0,-3.077925682E0,-8.633765221E0,1.163048585E1
3.497678972E0,7.410477638E0,-3.027649403E0,-8.837264061E0,1.192388677E1
3.500124597E0,7.590034962E0,-2.977373362E0,-8.971333504E0,1.212263204E1
3.502569441E0,7.781563282E0,-2.915126801E0,-9.083856583E0,1.231126077E1
3.505014233E0,7.944361210E0,-2.879215240E0,-9.055127144E0,1.238539798E1
3.507459858E0,8.071249008E0,-2.824151039E0,-8.971333504E0,1.239377725E1
3.509905483E0,8.145465851E0,-2.790633678E0,-8.830080986E0,1.233314966E1
3.512350327E0,8.085613251E0,-2.761904478E0,-8.514060020E0,1.206210910E1
3.514795118E0,7.944361210E0,-2.740357637E0,-8.121428490E0,1.168674616E1
3.517240743E0,7.791139126E0,-2.747539759E0,-7.688096046E0,1.128528442E1
3.519686368E0,7.551729679E0,-2.754722118E0,-7.161394596E0,1.076581105E1
3.522131160E0,7.374566078E0,-2.778663158E0,-6.663422108E0,1.032019321E1
3.524576004E0,7.238102436E0,-2.793027878E0,-6.206149101E0,9.935160707E0
3.527021629E0,7.116003513E0,-2.809786320E0,-5.811122894E0,9.607369799E0
3.529467202E0,7.087274075E0,-2.838515520E0,-5.495101929E0,9.406528019E0
3.531912045E0,7.106427193E0,-2.864850760E0,-5.236538887E0,9.280625886E0
3.534356889E0,7.259649754E0,-2.895974159E0,-5.104863644E0,9.335352896E0
3.536802514E0,7.520606041E0,-2.917520761E0,-5.068952084E0,9.527104379E0
3.539248087E0,7.843809605E0,-2.970191002E0,-5.095287800E0,9.813732290E0
3.541692931E0,8.078431129E0,-3.049196243E0,-5.176686764E0,1.006760811E1
3.544137774E0,8.188559532E0,-3.135383844E0,-5.152745724E0,1.017024717E1
3.546583399E0,8.128706932E0,-3.223965645E0,-5.097681522E0,1.012206440E1
3.549028972E0,7.992243290E0,-3.314941406E0,-5.059376240E0,1.002307724E1
3.551473816E0,7.714528084E0,-3.429857969E0,-4.997128963E0,9.810665988E0
3.553918660E0,7.362595558E0,-3.520833731E0,-4.922912121E0,9.530957311E0
3.556364285E0,6.993904591E0,-3.590262651E0,-4.817572117E0,9.220286787E0
3.558809858E0,6.608454704E0,-3.645326853E0,-4.752931118E0,8.919105093E0
3.561254702E0,6.354680061E0,-3.690814734E0,-4.762507439E0,8.757028559E0
3.563699545E0,6.199063778E0,-3.690814734E0,-4.841513157E0,8.688541579E0
3.566145170E0,6.108088017E0,-3.686026573E0,-4.999523640E0,8.711530735E0
3.568590743E0,6.048235893E0,-3.678844213E0,-5.193445683E0,8.779916299E0
3.571035587E0,6.002747536E0,-3.640538931E0,-5.418490410E0,8.868288449E0
3.573480379E0,5.959653854E0,-3.628568411E0,-5.648324013E0,8.977056696E0
3.575926004E0,5.885436535E0,-3.623780012E0,-5.854216576E0,9.057703710E0
3.578371629E0,5.820796013E0,-3.657297373E0,-6.055321217E0,9.161026434E0
3.580816472E0,5.720243931E0,-3.676450014E0,-6.285154819E0,9.259624530E0
3.583261264E0,5.653209209E0,-3.683632612E0,-6.471894264E0,9.349510092E0
3.585706889E0,5.581386089E0,-3.709967613E0,-6.644268990E0,9.437268714E0
3.588152514E0,5.533504009E0,-3.743484735E0,-6.821432590E0,9.548051486E0
3.590597358E0,5.449710846E0,-3.750667334E0,-6.926773071E0,9.578467463E0
3.593042149E0,5.413799286E0,-3.774608374E0,-7.089571476E0,9.686016456E0
3.595487774E0,5.349158764E0,-3.784184456E0,-7.235611439E0,9.761538013E0
3.597933399E0,5.308459282E0,-3.815307856E0,-7.415169239E0,9.885395734E0
3.600378243E0,5.270153522E0,-3.822490215E0,-7.556421280E0,9.974239427E0
3.602823035E0,5.289306164E0,-3.836854935E0,-7.745554447E0,1.013369771E1
3.605268660E0,5.351552486E0,-3.827278376E0,-7.886806488E0,1.027077847E1
3.607714285E0,5.440134525E0,-3.867978096E0,-8.059181213E0,1.046454586E1
3.610159129E0,5.531110287E0,-3.882342577E0,-8.210010529E0,1.063343960E1
3.612603920E0,5.655602932E0,-3.865584135E0,-8.327321053E0,1.078298943E1
3.615049545E0,5.782490730E0,-3.884736776E0,-8.427872658E0,1.093423140E1
3.617495170E0,5.911771774E0,-3.896707296E0,-8.509272575E0,1.106982805E1
3.619940014E0,5.993171215E0,-3.913465977E0,-8.521243095E0,1.112856240E1
3.622384806E0,5.993171215E0,-3.949377298E0,-8.499695778E0,1.112477014E1
3.624830431E0,5.990777016E0,-3.990077019E0,-8.411113739E0,1.107054462E1
3.627276056E0,5.978806496E0,-4.028382301E0,-8.324926376E0,1.101264683E1
3.629720899E0,5.930924892E0,-4.061899662E0,-8.198040009E0,1.090333705E1
3.632165691E0,5.895013332E0,-4.138511181E0,-8.032846451E0,1.078911855E1
3.634611316E0,5.883042812E0,-4.172028542E0,-7.855683327E0,1.066432255E1
3.637056941E0,5.928530693E0,-4.231880665E0,-7.656972885E0,1.056813720E1
3.639501785E0,5.995564938E0,-4.315674305E0,-7.388834000E0,1.044828749E1
3.641946577E0,6.069782257E0,-4.418620110E0,-7.056054115E0,1.030312380E1
3.644392202E0,6.148787498E0,-4.492837906E0,-6.728062630E0,1.016169311E1
3.646837827E0,6.258916378E0,-4.564660549E0,-6.359371662E0,1.002256295E1
3.649282670E0,6.388197422E0,-4.674789429E0,-6.033773899E0,9.953348681E0
3.651727462E0,6.550996304E0,-4.758582115E0,-5.698600292E0,9.901196978E0
3.654173087E0,6.735341549E0,-4.823223114E0,-5.370608807E0,9.872778026E0
3.656618712E0,6.936446190E0,-4.918987274E0,-5.056981564E0,9.893623405E0
3.659063556E0,7.130368233E0,-5.000386238E0,-4.817572117E0,9.952638583E0
3.661508347E0,7.336260796E0,-5.074604034E0,-4.602103233E0,1.003751377E1
3.663953972E0,7.544547081E0,-5.120091438E0,-4.451274395E0,1.014639693E1
3.666399597E0,7.707345963E0,-5.199096680E0,-4.348328590E0,1.026361289E1
3.668844441E0,7.834232807E0,-5.249372959E0,-4.300446510E0,1.036460131E1
3.671289233E0,7.953938007E0,-5.318801880E0,-4.271717548E0,1.047866185E1
3.673734858E0,7.994637966E0,-5.359501362E0,-4.290870190E0,1.053802913E1
3.676180483E0,7.953938007E0,-5.393018723E0,-4.281293869E0,1.052042100E1
3.678625327E0,7.848598003E0,-5.457659245E0,-4.269323349E0,1.046965410E1
3.681070118E0,7.692981243E0,-5.541452885E0,-4.216653347E0,1.037640718E1
3.683515743E0,7.470330238E0,-5.601305485E0,-4.116101265E0,1.020405540E1
3.685961368E0,7.300349236E0,-5.670734406E0,-3.979637146E0,1.006428534E1
3.688406160E0,7.159097195E0,-5.768892288E0,-3.843173981E0,9.965077878E0
3.690851004E0,7.029816151E0,-5.876626968E0,-3.716286659E0,9.887560173E0
3.693296629E0,6.905322552E0,-5.948449612E0,-3.567852020E0,9.787599316E0
3.695742254E0,6.802376747E0,-6.027454853E0,-3.359565735E0,9.689645161E0
3.698187097E0,6.725765705E0,-6.101671696E0,-3.230284214E0,9.638519487E0
3.700631889E0,6.771253109E0,-6.142371655E0,-3.112973690E0,9.657598221E0
3.703077514E0,6.876593590E0,-6.159130573E0,-3.033968449E0,9.717375848E0
3.705523087E0,7.056151390E0,-6.144765854E0,-2.852016926E0,9.781688013E0
3.707967931E0,7.312319756E0,-6.108854294E0,-2.686823845E0,9.899855724E0
3.710412774E0,7.628340721E0,-6.053789616E0,-2.588665962E0,1.007676249E1
3.712858399E0,7.886903286E0,-5.948449612E0,-2.322920799E0,1.014806668E1
3.715303972E0,8.152647972E0,-5.876626968E0,-2.042811394E0,1.025541281E1
3.717748816E0,8.415998459E0,-5.752133369E0,-1.741155028E0,1.034155159E1
3.720193660E0,8.631467819E0,-5.637217045E0,-1.449074864E0,1.041058455E1
3.722639285E0,8.806236267E0,-5.519906044E0,-1.125871539E0,1.045403016E1
3.725084858E0,8.988188744E0,-5.400200844E0,-7.883036137E-1,1.051528072E1
3.727529702E0,9.150986671E0,-5.285284519E0,-5.536819696E-1,1.058212423E1
3.729974545E0,9.306603432E0,-5.182337761E0,-3.741245568E-1,1.065877391E1
3.732420170E0,9.435884476E0,-5.093756199E0,-2.161140442E-1,1.072515610E1
3.734865743E0,9.512495995E0,-5.021933556E0,-7.486221194E-2,1.075699777E1
3.737310587E0,9.546013832E0,-4.995598316E0,-1.979793608E-2,1.077417164E1
3.739755379E0,9.531648636E0,-4.959686756E0,-1.022154838E-2,1.074480911E1
3.742201004E0,9.488554955E0,-4.966869354E0,-9.640909731E-2,1.071035765E1
3.744646629E0,9.423914909E0,-4.962080956E0,-2.256904393E-1,1.065285670E1
3.747091472E0,9.335332870E0,-5.000386238E0,-4.435534179E-1,1.059948310E1
3.749536264E0,9.239568710E0,-5.029115677E0,-6.877515316E-1,1.054204139E1
3.751981889E0,9.177321434E0,-5.093756199E0,-9.846197367E-1,1.054225104E1
3.754427514E0,9.136622429E0,-5.144032478E0,-1.336552262E0,1.057001947E1
3.756872358E0,9.091135025E0,-5.215855122E0,-1.733972669E0,1.062358423E1
3.759317149E0,9.004946709E0,-5.297255039E0,-2.119422436E0,1.066029679E1
3.761762774E0,8.844542503E0,-5.385836124E0,-2.421079159E0,1.063460329E1
3.764208399E0,8.617102623E0,-5.512723923E0,-2.667671204E0,1.057171000E1
3.766653243E0,8.348963737E0,-5.610881805E0,-2.938204288E0,1.047951500E1
3.769098035E0,8.131101608E0,-5.677916527E0,-3.263801575E0,1.044059147E1
3.771543660E0,8.006608009E0,-5.721010208E0,-3.642069340E0,1.049287371E1
3.773989285E0,7.903662205E0,-5.749739170E0,-4.008366585E0,1.056382409E1
3.776434129E0,7.862962246E0,-5.778468609E0,-4.331570148E0,1.067611234E1
3.778878920E0,7.910844326E0,-5.771286488E0,-4.690684795E0,1.085779579E1
3.781324545E0,7.994637966E0,-5.761709690E0,-4.961218357E0,1.103291541E1
3.783770170E0,8.092795372E0,-5.744951248E0,-5.234145164E0,1.122025300E1
3.786215014E0,8.217288971E0,-5.747345448E0,-5.442431450E0,1.140946440E1
3.788659806E0,8.265171051E0,-5.704251289E0,-5.574107170E0,1.148573925E1
3.791105431E0,8.274746895E0,-5.653975487E0,-5.653112411E0,1.150637019E1
3.793551056E0,8.236441612E0,-5.591728687E0,-5.653112411E0,1.144832215E1
3.795995899E0,8.126312256E0,-5.498359203E0,-5.602836132E0,1.129870247E1
3.798440691E0,7.949150562E0,-5.393018723E0,-5.487919807E0,1.106304250E1
3.800886316E0,7.795927525E0,-5.256555557E0,-5.339485645E0,1.081286129E1
3.803331941E0,7.630734444E0,-5.117697239E0,-5.147957802E0,1.053187556E1
3.805776785E0,7.503847599E0,-4.962080956E0,-4.932488441E0,1.025960128E1
3.808221577E0,7.379354477E0,-4.794493675E0,-4.721807957E0,9.986867000E0
3.810667202E0,7.341048717E0,-4.605360508E0,-4.537462711E0,9.782070821E0
3.813112827E0,7.341048717E0,-4.425802708E0,-4.305234432E0,9.592380799E0
3.815557670E0,7.324290276E0,-4.246245384E0,-4.092160225E0,9.403276196E0
3.818002462E0,7.252467155E0,-4.097811222E0,-3.881479263E0,9.190006416E0
3.820448087E0,7.111215115E0,-3.973318338E0,-3.670798302E0,8.934841867E0
3.822893712E0,6.986721992E0,-3.882342577E0,-3.481664658E0,8.718305849E0
3.825338504E0,6.764070988E0,-3.781790495E0,-3.378718376E0,8.454012866E0
3.827783347E0,6.572543144E0,-3.721938133E0,-3.275772095E0,8.232972104E0
3.830228972E0,6.373833179E0,-3.678844213E0,-3.206343174E0,8.027470380E0
3.832674545E0,6.254127979E0,-3.633356333E0,-3.194373131E0,7.906921950E0
3.835119389E0,6.184699059E0,-3.616597891E0,-3.266195774E0,7.873901040E0
3.837564233E0,6.230186939E0,-3.616597891E0,-3.366747856E0,7.951729417E0
3.840009858E0,6.335526943E0,-3.611809492E0,-3.531940937E0,8.103004149E0
3.842455431E0,6.486355782E0,-3.626173973E0,-3.656434059E0,8.281996078E0
3.844900274E0,6.639577866E0,-3.674056053E0,-3.847961903E0,8.508201509E0
3.847345066E0,6.814347267E0,-3.743484735E0,-4.041883945E0,8.762752562E0
3.849790691E0,6.934051991E0,-3.820096016E0,-4.228623390E0,8.975269709E0
3.852236316E0,7.022633553E0,-3.932618856E0,-4.367481709E0,9.157388796E0
3.854681160E0,7.048968792E0,-4.028382301E0,-4.527885914E0,9.296105413E0
3.857125952E0,7.034604073E0,-4.145693302E0,-4.626044273E0,9.384706337E0
3.859571577E0,6.998692513E0,-4.274974823E0,-4.714625835E0,9.459640764E0
3.862017202E0,6.965175152E0,-4.358768463E0,-4.817572117E0,9.524784959E0
3.864462045E0,6.924475670E0,-4.464108467E0,-4.865454197E0,9.568138390E0
3.866906837E0,6.895746708E0,-4.545507908E0,-4.934882641E0,9.621124232E0
3.869352462E0,6.864623070E0,-4.610148430E0,-4.975582600E0,9.650540951E0
3.871798087E0,6.869410992E0,-4.646059990E0,-5.056981564E0,9.713276653E0
3.874242931E0,6.847864628E0,-4.684365273E0,-5.131198883E0,9.755292407E0
3.876687722E0,6.778435707E0,-4.679577351E0,-5.236538887E0,9.760480231E0
3.879133347E0,6.697036266E0,-4.662818909E0,-5.282027245E0,9.720698881E0
3.881578972E0,6.577331066E0,-4.612542152E0,-5.334697247E0,9.643434231E0
3.884023816E0,6.419320583E0,-4.571842670E0,-5.401731968E0,9.554482216E0
3.886468608E0,6.321162701E0,-4.523961067E0,-5.440037727E0,9.487746418E0
3.888914233E0,6.282856941E0,-4.440167427E0,-5.468766689E0,9.439109451E0
3.891359858E0,6.263704300E0,-4.368344307E0,-5.502284050E0,9.412308607E0
3.893804702E0,6.357074261E0,-4.279762745E0,-5.581289768E0,9.480482993E0
3.896249493E0,6.491143703E0,-4.188786983E0,-5.643536091E0,9.567151226E0
3.898695118E0,6.603666782E0,-4.095417500E0,-5.715359211E0,9.646045323E0
3.901140743E0,6.694642067E0,-4.009229660E0,-5.751270771E0,9.693774825E0
3.903585587E0,6.704218864E0,-3.956559896E0,-5.756058693E0,9.681587084E0
3.906030379E0,6.610848427E0,-3.920648336E0,-5.763241291E0,9.606755461E0
3.908476004E0,6.448050022E0,-3.879948616E0,-5.698600292E0,9.439565437E0
3.910921629E0,6.270886421E0,-3.853613615E0,-5.645930290E0,9.276361530E0
3.913366472E0,6.069782257E0,-3.841643095E0,-5.624382973E0,9.123275845E0
3.915811264E0,5.918954372E0,-3.820096016E0,-5.602836132E0,9.001051447E0
3.918256889E0,5.823190212E0,-3.803337336E0,-5.677053452E0,8.977964971E0
3.920702514E0,5.830372810E0,-3.796154976E0,-5.739300251E0,9.019069081E0
3.923147358E0,5.902195454E0,-3.788972855E0,-5.890128136E0,9.158921111E0
3.925592149E0,5.988383293E0,-3.777002335E0,-6.031380177E0,9.300754159E0
3.928037774E0,6.100905418E0,-3.786578894E0,-6.198966980E0,9.486117133E0
3.930483399E0,6.172728539E0,-3.765031815E0,-6.368947983E0,9.635431520E0
3.932928191E0,6.172728539E0,-3.745879173E0,-6.536534786E0,9.739634254E0
3.935373035E0,6.129634857E0,-3.753061295E0,-6.672998428E0,9.807486966E0
3.937818660E0,6.072176456E0,-3.719544172E0,-6.804674149E0,9.849361707E0
3.940264233E0,5.988383293E0,-3.705179214E0,-6.933955193E0,9.882753771E0
3.942709077E0,5.950077534E0,-3.652508974E0,-7.068024635E0,9.934848600E0
3.945153920E0,5.940501213E0,-3.616597891E0,-7.214064598E0,1.002058197E1
3.947599545E0,6.026688576E0,-3.542380571E0,-7.403198719E0,1.018217985E1
3.950045118E0,6.153575420E0,-3.451404810E0,-7.621061802E0,1.038553170E1
3.952489962E0,6.383409023E0,-3.362823248E0,-7.848501205E0,1.066093158E1
3.954934806E0,6.630001545E0,-3.267059326E0,-8.145369530E0,1.099898368E1
3.957380431E0,6.900534630E0,-3.185659885E0,-8.375202179E0,1.130972231E1
3.959826004E0,7.125580311E0,-3.109048843E0,-8.547577858E0,1.155427050E1
3.962270847E0,7.336260796E0,-3.025255442E0,-8.698406219E0,1.177434345E1
3.964715639E0,7.472723961E0,-2.943856001E0,-8.779805183E0,1.189928026E1
3.967161264E0,7.477512836E0,-2.895974159E0,-8.703193665E0,1.183407979E1
3.969606889E0,7.408083439E0,-2.848092079E0,-8.559548378E0,1.167292582E1
3.972051733E0,7.230920315E0,-2.814574480E0,-8.303380013E0,1.136460108E1
3.974496524E0,6.955599308E0,-2.778663158E0,-7.915535450E0,1.089757001E1
3.976942149E0,6.685065746E0,-2.764298677E0,-7.460657120E0,1.039196112E1
3.979387774E0,6.428897381E0,-2.747539759E0,-7.048871994E0,9.928055834E0
3.981832618E0,6.215822697E0,-2.730781078E0,-6.675392628E0,9.521264823E0
3.984277410E0,6.086541176E0,-2.735569239E0,-6.347401142E0,9.209713557E0
3.986723035E0,6.064994335E0,-2.697263718E0,-6.139114857E0,9.041466644E0
3.989168660E0,6.100905418E0,-2.718810558E0,-6.074473858E0,9.028411290E0
3.991613504E0,6.206246376E0,-2.757116318E0,-6.093626499E0,9.124224262E0
3.994058295E0,6.397774220E0,-2.773874998E0,-6.230090141E0,9.350931538E0
3.996503920E0,6.663518429E0,-2.812180519E0,-6.455135822E0,9.694308413E0
3.998949545E0,6.977145672E0,-2.862456560E0,-6.735245228E0,1.011126835E1
4.001394389E0,7.321896076E0,-2.936673641E0,-7.032113075E0,1.056810430E1
4.003839181E0,7.551729679E0,-2.996526003E0,-7.288281441E0,1.091452407E1
4.006284806E0,7.676222801E0,-3.101866484E0,-7.429533482E0,1.112402535E1
4.008730431E0,7.606793880E0,-3.171295404E0,-7.439110279E0,1.110228758E1
4.011175274E0,7.420053959E0,-3.274241686E0,-7.350528717E0,1.094569010E1
4.013620066E0,7.125580311E0,-3.358035088E0,-7.204488754E0,1.067496851E1
4.016065691E0,6.759282589E0,-3.451404810E0,-7.048871994E0,1.035792898E1
4.018511316E0,6.400167942E0,-3.508863211E0,-6.847767830E0,1.000830630E1
4.020956160E0,6.064994335E0,-3.561533213E0,-6.701727390E0,9.715030886E0
4.023400952E0,5.777702332E0,-3.621385813E0,-6.586811066E0,9.480630752E0
4.025846577E0,5.593356609E0,-3.614203691E0,-6.572446346E0,9.356556923E0
4.028292149E0,5.540686607E0,-3.633356333E0,-6.668210030E0,9.400293151E0
4.030736993E0,5.559839249E0,-3.580686331E0,-6.785521030E0,9.475042096E0
4.033181837E0,5.638844490E0,-3.563927650E0,-6.950714111E0,9.633824481E0
4.035627462E0,5.720243931E0,-3.542380571E0,-7.111118793E0,9.789671151E0
4.038073035E0,5.856707573E0,-3.508863211E0,-7.297858238E0,9.993591921E0
4.040517879E0,5.930924892E0,-3.482527971E0,-7.448686600E0,1.013838267E1
4.042962670E0,5.966835976E0,-3.482527971E0,-7.520509720E0,1.021220833E1
4.045408295E0,5.945289135E0,-3.501681089E0,-7.546844482E0,1.022560976E1
4.047853920E0,5.926136494E0,-3.487316370E0,-7.597120762E0,1.024679038E1
4.050298764E0,5.911771774E0,-3.482527971E0,-7.599514484E0,1.023863599E1
4.052743556E0,5.847131252E0,-3.508863211E0,-7.623455524E0,1.022830089E1
4.055189181E0,5.804037571E0,-3.492104530E0,-7.589938164E0,1.017294488E1
4.057634806E0,5.717849731E0,-3.506469011E0,-7.575573444E0,1.011822334E1
4.060079649E0,5.657997608E0,-3.525622129E0,-7.556421280E0,1.007682742E1
4.062524441E0,5.607721329E0,-3.544774771E0,-7.568391800E0,1.006441857E1
4.064970066E0,5.547868729E0,-3.566321611E0,-7.575573444E0,1.004424264E1
4.067415691E0,5.578992367E0,-3.607021332E0,-7.640214443E0,1.012465483E1
4.069860535E0,5.622086048E0,-3.645326853E0,-7.692884445E0,1.020180036E1
4.072305327E0,5.679543972E0,-3.674056053E0,-7.798224926E0,1.032318844E1
4.074750952E0,5.763337612E0,-3.705179214E0,-7.908353806E0,1.046357842E1
4.077196577E0,5.885436535E0,-3.745879173E0,-7.972994328E0,1.059427263E1
