"Time (s)","Acceleration x (m/s^2)","Acceleration y (m/s^2)","Acceleration z (m/s^2)","Absolute acceleration (m/s^2)"
0.000000000E0,6.525040150E0,-3.499073505E0,-6.660720348E0,9.959159599E0
0.000000000E0,6.613261700E0,-3.493328094E0,-6.573669910E0,9.957495045E0
0.000000000E0,6.533498764E0,-3.537175894E0,-6.603164673E0,9.939819068E0
0.000000000E0,6.435676098E0,-3.679030895E0,-6.289800167E0,9.721871286E0
0.000000000E0,6.490939140E0,-3.759572029E0,-6.435311317E0,9.883314450E0
0.000000000E0,6.258969784E0,-3.740886211E0,-6.413604736E0,9.710986465E0
0.000000000E0,6.188620567E0,-3.808965683E0,-6.387031555E0,9.674782488E0
0.000000000E0,6.232193947E0,-3.835310459E0,-6.353192806E0,9.690867172E0
0.000000000E0,6.147224903E0,-3.861264467E0,-6.313989639E0,9.621029179E0
0.000000000E0,6.110149860E0,-3.879426956E0,-6.399557590E0,9.661170849E0
0.000000000E0,6.389723301E0,-3.997411251E0,-6.722143173E0,1.009926084E1
0.000000000E0,6.638822079E0,-3.799495697E0,-6.350770473E0,9.941952110E0
0.000000000E0,6.547132492E0,-3.960476160E0,-6.596745491E0,1.010283952E1
0.000000000E0,6.504105091E0,-3.869958639E0,-6.933794022E0,1.026437833E1
0.000000000E0,6.463140488E0,-3.935445309E0,-6.592408657E0,1.003592381E1
0.000000000E0,6.415493965E0,-4.216436386E0,-6.554236889E0,1.009430135E1
3.248705000E-3,6.179911137E0,-4.320462227E0,-6.251636982E0,9.794930345E0
5.651674000E-3,6.179911137E0,-4.320462227E0,-6.251636982E0,9.794930345E0
8.078496000E-3,6.175122738E0,-4.318068504E0,-6.311489582E0,9.829178866E0
1.052917400E-2,6.175122738E0,-4.318068504E0,-6.311489582E0,9.829178866E0
1.298000700E-2,6.206246376E0,-4.306097984E0,-6.402465343E0,9.902097576E0
1.543099600E-2,6.206246376E0,-4.306097984E0,-6.402465343E0,9.902097576E0
1.788219400E-2,6.230186939E0,-4.303703785E0,-6.464712143E0,9.956384819E0
2.033365300E-2,6.230186939E0,-4.303703785E0,-6.464712143E0,9.956384819E0
2.278500700E-2,6.246945858E0,-4.286945343E0,-6.517382145E0,9.993923301E0
2.523625700E-2,6.246945858E0,-4.286945343E0,-6.517382145E0,9.993923301E0
2.768755900E-2,6.251733780E0,-4.274974823E0,-6.586811066E0,1.003721401E1
3.013886100E-2,6.251733780E0,-4.274974823E0,-6.586811066E0,1.003721401E1
3.259016300E-2,6.256522179E0,-4.270186424E0,-6.620327950E0,1.006018410E1
3.504146500E-2,6.258916378E0,-4.260609627E0,-6.658634186E0,1.008286853E1
3.749276700E-2,6.282856941E0,-4.236669064E0,-6.694545269E0,1.011140902E1
3.994412100E-2,6.275674820E0,-4.217516422E0,-6.692151070E0,1.009734743E1
4.239547600E-2,6.263704300E0,-4.200757504E0,-6.687363148E0,1.007974112E1
4.484688200E-2,6.246945858E0,-4.186393261E0,-6.704121590E0,1.007449589E1
4.729823600E-2,6.244551659E0,-4.155269623E0,-6.692151070E0,1.005214291E1
4.974959000E-2,6.203852177E0,-4.126540661E0,-6.694545269E0,1.001663896E1
5.220094400E-2,6.182305336E0,-4.116963863E0,-6.670604706E0,9.983349030E0
5.465229900E-2,6.146393776E0,-4.073870182E0,-6.622722626E0,9.911358620E0
5.710370500E-2,6.100905418E0,-4.025988579E0,-6.598781586E0,9.847514883E0
5.955505900E-2,6.031476498E0,-4.011623859E0,-6.550899506E0,9.766581749E0
6.200641300E-2,6.002747536E0,-3.980500937E0,-6.507805824E0,9.707157273E0
6.445781900E-2,5.957259655E0,-3.956559896E0,-6.488653183E0,9.656393164E0
6.690922600E-2,5.921348095E0,-3.925436497E0,-6.431194782E0,9.582884810E0
6.936063200E-2,5.871072292E0,-3.901495457E0,-6.419224262E0,9.534023117E0
7.181203800E-2,5.830372810E0,-3.879948616E0,-6.385706425E0,9.477578536E0
7.426344400E-2,5.789672852E0,-3.858401537E0,-6.364159584E0,9.429215310E0
7.671485100E-2,5.727426052E0,-3.817702055E0,-6.333036423E0,9.353374177E0
7.916630900E-2,5.698697090E0,-3.803337336E0,-6.294731140E0,9.303986433E0
8.161776700E-2,5.667573452E0,-3.762637854E0,-6.277972221E0,9.256984804E0
8.406922600E-2,5.641238689E0,-3.755455256E0,-6.239666462E0,9.211973496E0
8.652068400E-2,5.617297649E0,-3.714755774E0,-6.232484341E0,9.175908914E0
8.897214200E-2,5.610115528E0,-3.709967613E0,-6.208543301E0,9.153319936E0
9.142360100E-2,5.552657127E0,-3.674056053E0,-6.165449619E0,9.074329621E0
9.387505900E-2,5.538292885E0,-3.666873932E0,-6.170237541E0,9.065896747E0
9.632651700E-2,5.523927689E0,-3.635750532E0,-6.143902779E0,9.026627299E0
9.877797600E-2,5.514351845E0,-3.611809492E0,-6.158267021E0,9.020947665E0
1.012294340E-1,5.499986649E0,-3.585474253E0,-6.143902779E0,8.991830743E0
1.036808920E-1,5.488016129E0,-3.578292131E0,-6.148690701E0,8.984925873E0
1.061323510E-1,5.526322365E0,-3.544774771E0,-6.179814339E0,9.016416822E0
1.085838090E-1,5.523927689E0,-3.547168732E0,-6.191784859E0,9.024100113E0
1.110352670E-1,5.521533489E0,-3.523227930E0,-6.249243259E0,9.052817707E0
1.134867260E-1,5.550262928E0,-3.496892929E0,-6.285154819E0,9.084979352E0
1.159381840E-1,5.564627647E0,-3.482527971E0,-6.313883781E0,9.108139784E0
1.183896420E-1,5.614903450E0,-3.460981369E0,-6.364159584E0,9.165591088E0
1.208410490E-1,5.641238689E0,-3.439434290E0,-6.400071144E0,9.198597330E0
1.232924550E-1,5.681938171E0,-3.444222689E0,-6.426405907E0,9.243688884E0
1.257438610E-1,5.679543972E0,-3.422675848E0,-6.464712143E0,9.260908853E0
1.281952670E-1,5.713061810E0,-3.427463770E0,-6.479076385E0,9.293277890E0
1.306297990E-1,5.765731812E0,-3.405917168E0,-6.498229027E0,9.331179752E0
1.330402670E-1,5.782490730E0,-3.389158249E0,-6.522170067E0,9.352127836E0
1.354438090E-1,5.784884453E0,-3.353246927E0,-6.543716908E0,9.355713979E0
1.378468820E-1,5.801643372E0,-3.322123528E0,-6.572446346E0,9.375106480E0
1.402493820E-1,5.782490730E0,-3.298182487E0,-6.596386909E0,9.371634171E0
1.426526110E-1,5.792067051E0,-3.283818007E0,-6.596386909E0,9.372503491E0
1.450555280E-1,5.777702332E0,-3.264665127E0,-6.598781586E0,9.358621749E0
1.474581320E-1,5.748973370E0,-3.255088806E0,-6.582022667E0,9.325734305E0
1.498611530E-1,5.729820251E0,-3.214389086E0,-6.577234745E0,9.296405445E0
1.522641210E-1,5.713061810E0,-3.183265924E0,-6.589205265E0,9.283850667E0
1.546675070E-1,5.669967651E0,-3.188054085E0,-6.589205265E0,9.259041421E0
1.570706320E-1,5.672362328E0,-3.185659885E0,-6.589205265E0,9.259684082E0
1.594734440E-1,5.648421288E0,-3.176083565E0,-6.601175785E0,9.250280623E0
1.618768300E-1,5.624480247E0,-3.164113045E0,-6.584416389E0,9.219594818E0
1.642796420E-1,5.602932930E0,-3.173689365E0,-6.615540028E0,9.232038316E0
1.666823510E-1,5.588568687E0,-3.168901443E0,-6.589205265E0,9.202807309E0
1.690854760E-1,5.557445049E0,-3.164113045E0,-6.608357430E0,9.196042342E0
1.714887050E-1,5.533504009E0,-3.159324884E0,-6.610752106E0,9.181668898E0
1.738924030E-1,5.526322365E0,-3.176083565E0,-6.617934227E0,9.188296856E0
1.762957880E-1,5.502381325E0,-3.156930923E0,-6.644268990E0,9.186333518E0
1.786988090E-1,5.459287167E0,-3.161719084E0,-6.646663666E0,9.163974128E0
1.811025070E-1,5.456892967E0,-3.171295404E0,-6.646663666E0,9.165856931E0
1.835059440E-1,5.435346127E0,-3.176083565E0,-6.651451588E0,9.158182273E0
1.859087050E-1,5.406617165E0,-3.180871725E0,-6.663422108E0,9.151538028E0
1.883119340E-1,5.404222965E0,-3.202418566E0,-6.653845787E0,9.150670701E0
1.907152150E-1,5.368311882E0,-3.228753805E0,-6.629904747E0,9.121362867E0
1.931186010E-1,5.382676125E0,-3.221571207E0,-6.634693146E0,9.130765381E0
1.955216740E-1,5.368311882E0,-3.233541727E0,-6.644268990E0,9.133502886E0
1.979243300E-1,5.356341362E0,-3.238330126E0,-6.632298470E0,9.119460389E0
2.003278190E-1,5.368311882E0,-3.240724325E0,-6.661027908E0,9.148243515E0
2.027310490E-1,5.358735085E0,-3.257482767E0,-6.668210030E0,9.153811265E0
2.051337570E-1,5.373099804E0,-3.255088806E0,-6.665816307E0,9.159634910E0
2.075367780E-1,5.392252445E0,-3.269453287E0,-6.740033150E0,9.230046484E0
2.099400070E-1,5.430558205E0,-3.283818007E0,-6.785521030E0,9.290732951E0
2.123437050E-1,5.449710846E0,-3.283818007E0,-6.821432590E0,9.328169788E0
2.147467260E-1,5.499986649E0,-3.255088806E0,-6.931560993E0,9.428255092E0
2.171493300E-1,5.461681366E0,-3.322123528E0,-6.586811066E0,9.178918678E0
2.195526630E-1,5.557445049E0,-3.291000366E0,-6.919590473E0,9.465548648E0
2.219556320E-1,5.588568687E0,-3.310153008E0,-7.587543964E0,9.987994609E0
2.243581840E-1,5.574203968E0,-3.329305887E0,-6.206149101E0,8.981776786E0
2.267609440E-1,5.653209209E0,-3.298182487E0,-7.826953888E0,1.020284221E1
2.291638610E-1,5.622086048E0,-3.362823248E0,-6.763974190E0,9.416356969E0
2.315671420E-1,5.669967651E0,-3.346064568E0,-7.075207233E0,9.664535098E0
2.339701630E-1,5.669967651E0,-3.353246927E0,-7.724007607E0,1.015150686E1
2.363729240E-1,5.655602932E0,-3.396340609E0,-6.462317467E0,9.234853604E0
2.387765170E-1,5.722638130E0,-3.365217209E0,-7.994541168E0,1.039162944E1
2.411796940E-1,5.686726570E0,-3.425069809E0,-6.874102592E0,9.556319832E0
2.435825590E-1,5.705879211E0,-3.415493250E0,-7.307434559E0,9.880346732E0
2.459858400E-1,5.684332848E0,-3.441828489E0,-7.886806488E0,1.031307616E1
2.483892780E-1,5.674756050E0,-3.453799009E0,-6.653845787E0,9.402406478E0
2.507931320E-1,5.722638130E0,-3.446616888E0,-8.277044296E0,1.063659802E1
2.531964130E-1,5.646027088E0,-3.520833731E0,-6.989019394E0,9.649885187E0
2.555992780E-1,5.703485012E0,-3.504075050E0,-7.613879204E0,1.013801952E1
2.580027150E-1,5.674756050E0,-3.532804251E0,-8.042423248E0,1.045773082E1
2.604055280E-1,5.674756050E0,-3.578292131E0,-6.840585709E0,9.581265242E0
2.628078190E-1,5.717849731E0,-3.568715811E0,-8.470966339E0,1.082528562E1
2.652104240E-1,5.617297649E0,-3.666873932E0,-7.103936195E0,9.770665626E0
2.676131320E-1,5.705879211E0,-3.657297373E0,-7.848501205E0,1.036975664E1
2.700165690E-1,5.636450768E0,-3.674056053E0,-8.085515976E0,1.051873727E1
2.724197990E-1,5.607721329E0,-3.721938133E0,-6.878890991E0,9.623850749E0
2.748224030E-1,5.667573452E0,-3.712361574E0,-8.514060020E0,1.088081961E1
2.772256320E-1,5.552657127E0,-3.798549414E0,-6.888467312E0,9.628705039E0
2.796283920E-1,5.583780289E0,-3.753061295E0,-7.733583927E0,1.025048251E1
2.820308920E-1,5.514351845E0,-3.791366816E0,-7.786254406E0,1.026685425E1
2.844338610E-1,5.464075565E0,-3.829672575E0,-6.644268990E0,9.416412492E0
2.868369340E-1,5.485621929E0,-3.798549414E0,-8.248315811E0,1.060922897E1
2.892405800E-1,5.346764565E0,-3.853613615E0,-6.534140587E0,9.280798587E0
2.916439650E-1,5.375493526E0,-3.820096016E0,-7.527691841E0,1.000775743E1
2.940468820E-1,5.284518242E0,-3.848825216E0,-7.381651402E0,9.860444514E0
2.964505800E-1,5.270153522E0,-3.875160217E0,-6.412041664E0,9.160003448E0
2.988540170E-1,5.253394604E0,-3.846431017E0,-7.994541168E0,1.031047404E1
3.012571940E-1,5.176783562E0,-3.870372057E0,-6.277972221E0,9.010649428E0
3.036607880E-1,5.229453564E0,-3.829672575E0,-7.477415562E0,9.895722313E0
3.060640690E-1,5.167207241E0,-3.882342577E0,-7.211670399E0,9.684048972E0
3.084677670E-1,5.164813042E0,-3.865584135E0,-6.431194782E0,9.109242602E0
3.108713090E-1,5.215089321E0,-3.832066536E0,-8.011299133E0,1.029867974E1
3.132744860E-1,5.171995163E0,-3.882342577E0,-6.318671703E0,9.041445125E0
3.156781840E-1,5.248606682E0,-3.827278376E0,-7.709642887E0,1.008139501E1
3.180813090E-1,5.222271442E0,-3.848825216E0,-7.338558197E0,9.794897191E0
3.204838610E-1,5.260577202E0,-3.832066536E0,-6.720880508E0,9.355674280E0
3.228870380E-1,5.301276684E0,-3.808125496E0,-8.229162216E0,1.050354536E1
3.252904760E-1,5.234241962E0,-3.848825216E0,-6.500623226E0,9.190693488E0
3.276941210E-1,5.320429802E0,-3.777002335E0,-7.980176449E0,1.030805200E1
3.300970380E-1,5.243818283E0,-3.810519934E0,-7.391228199E0,9.830968754E0
3.324997990E-1,5.258183002E0,-3.791366816E0,-6.991413593E0,9.534296767E0
3.349035490E-1,5.286911964E0,-3.772214174E0,-8.384778976E0,1.060592082E1
3.373067260E-1,5.215089321E0,-3.805731535E0,-6.646663666E0,9.266007070E0
3.397095900E-1,5.279729843E0,-3.736302614E0,-8.241132736E0,1.047624805E1
3.421130280E-1,5.215089321E0,-3.781790495E0,-7.477415562E0,9.869692977E0
3.445164650E-1,5.251000881E0,-3.755455256E0,-7.238005638E0,9.698720537E0
3.469200590E-1,5.277335644E0,-3.743484735E0,-8.475754738E0,1.066313124E1
3.493232880E-1,5.224665642E0,-3.774608374E0,-6.735245228E0,9.322463608E0
3.517262050E-1,5.306064606E0,-3.712361574E0,-8.365626335E0,1.057920857E1
3.541296940E-1,5.258183002E0,-3.757849693E0,-7.434322357E0,9.850841168E0
3.565324030E-1,5.327611446E0,-3.726726294E0,-7.283493519E0,9.763258187E0
3.589350590E-1,5.320429802E0,-3.717149734E0,-8.348867416E0,1.057486466E1
3.613383920E-1,5.272547722E0,-3.738696814E0,-6.593993187E0,9.233545337E0
3.637419860E-1,5.327611446E0,-3.671662092E0,-8.202827454E0,1.044753198E1
3.661456840E-1,5.262970924E0,-3.717149734E0,-7.051266193E0,9.551775753E0
3.685487570E-1,5.291700363E0,-3.662085533E0,-7.056054115E0,9.549914286E0
3.709516210E-1,5.239030361E0,-3.645326853E0,-7.879623890E0,1.014023272E1
3.733554760E-1,5.176783562E0,-3.664479494E0,-6.124749660E0,8.817032177E0
3.757591740E-1,5.210300922E0,-3.590262651E0,-7.783860207E0,1.003123628E1
3.781622990E-1,5.081019878E0,-3.633356333E0,-6.409647465E0,8.949950942E0
3.805657360E-1,5.104960442E0,-3.578292131E0,-6.548505306E0,9.041444433E0
3.829692780E-1,5.011590481E0,-3.566321611E0,-7.204488754E0,9.473085410E0
3.853728710E-1,4.951738358E0,-3.583080292E0,-5.545378208E0,8.252841729E0
3.877757880E-1,4.963708878E0,-3.525622129E0,-7.257158756E0,9.472843841E0
3.901783920E-1,4.834427834E0,-3.518439531E0,-5.830275536E0,8.351240748E0
3.925819340E-1,4.824851036E0,-3.472951889E0,-6.232484341E0,8.613039150E0
3.949850070E-1,4.745845795E0,-3.480134010E0,-6.842979431E0,9.025561065E0
3.973878190E-1,4.681205273E0,-3.492104530E0,-5.389761448E0,7.947201100E0
3.997908920E-1,4.702752113E0,-3.422675848E0,-7.223640919E0,9.274242585E0
4.021939130E-1,4.592623711E0,-3.458587170E0,-5.851822853E0,8.203526587E0
4.045977150E-1,4.628535271E0,-3.413099289E0,-6.524564266E0,8.697271088E0
4.070009960E-1,4.590229034E0,-3.425069809E0,-7.068024635E0,9.097157690E0
4.094037050E-1,4.571076870E0,-3.422675848E0,-5.866187096E0,8.186672386E0
4.118073510E-1,4.623746872E0,-3.362823248E0,-7.740766525E0,9.623257335E0
4.142105800E-1,4.559106350E0,-3.410705328E0,-6.347401142E0,8.526890571E0
4.166133920E-1,4.616564751E0,-3.334094048E0,-7.269129276E0,9.234126578E0
4.190166210E-1,4.621352673E0,-3.350852728E0,-7.647396564E0,9.542944448E0
4.214196420E-1,4.597411633E0,-3.341276407E0,-6.503017426E0,8.636524613E0
4.238230280E-1,4.642899513E0,-3.281423807E0,-8.332109451E0,1.008703653E1
4.262261010E-1,4.578258514E0,-3.307759047E0,-6.775944710E0,8.821289455E0
4.286286010E-1,4.628535271E0,-3.259876966E0,-7.764707565E0,9.609413102E0
4.310320380E-1,4.580653191E0,-3.243118286E0,-7.908353806E0,9.697538852E0
4.334354240E-1,4.563894272E0,-3.245512247E0,-6.809462070E0,8.816533012E0
4.358380800E-1,4.575864792E0,-3.188054085E0,-8.542789459E0,1.020203309E1
4.382408920E-1,4.506436348E0,-3.211995125E0,-6.852556229E0,8.808087653E0
4.406440170E-1,4.554317474E0,-3.140172005E0,-7.925112247E0,9.664879307E0
4.430475590E-1,4.504041672E0,-3.142565966E0,-7.867653847E0,9.594899128E0
4.454505800E-1,4.513617992E0,-3.149748564E0,-6.931560993E0,8.851000011E0
4.478533400E-1,4.571076870E0,-3.101866484E0,-8.600248337E0,1.022157478E1
4.502567260E-1,4.518406391E0,-3.156930923E0,-6.900437832E0,8.831661873E0
4.526599550E-1,4.599805832E0,-3.099472284E0,-8.126216888E0,9.838716535E0
4.550630280E-1,4.595017433E0,-3.128201485E0,-7.891594410E0,9.652828190E0
4.574663610E-1,4.623746872E0,-3.123413324E0,-7.123089314E0,9.048378158E0
4.598696420E-1,4.695569515E0,-3.087501764E0,-8.719953537E0,1.037393994E1
4.622731320E-1,4.662052155E0,-3.164113045E0,-6.969866753E0,8.962442982E0
4.646761010E-1,4.760210037E0,-3.082713604E0,-8.320138931E0,1.006913276E1
4.670788610E-1,4.736268997E0,-3.154536486E0,-7.927505970E0,9.758519117E0
4.694823510E-1,4.774575233E0,-3.144960403E0,-7.293070316E0,9.266942281E0
4.718853190E-1,4.822457314E0,-3.111442804E0,-8.777411461E0,1.048714083E1
4.742879240E-1,4.767392635E0,-3.171295404E0,-6.984230995E0,9.031313840E0
4.766908920E-1,4.827245235E0,-3.128201485E0,-8.415902138E0,1.019388787E1
4.790938610E-1,4.798516273E0,-3.168901443E0,-7.826953888E0,9.712306726E0
4.814972990E-1,4.786545753E0,-3.168901443E0,-7.312222481E0,9.296319391E0
4.839003710E-1,4.827245235E0,-3.121019363E0,-8.672071457E0,1.040422423E1
4.863031320E-1,4.762604713E0,-3.176083565E0,-6.893255711E0,8.960294904E0
4.887063610E-1,4.829638958E0,-3.094684124E0,-8.406326294E0,1.017687595E1
4.911091210E-1,4.798516273E0,-3.137778044E0,-7.668943405E0,9.575181587E0
4.935116740E-1,4.851186275E0,-3.111442804E0,-7.357710838E0,9.346175335E0
4.959147460E-1,4.884703636E0,-3.087501764E0,-8.643342018E0,1.039713220E1
4.983177150E-1,4.875127316E0,-3.159324884E0,-6.905226231E0,9.023876626E0
5.007209440E-1,4.999619961E0,-3.068349123E0,-8.552366257E0,1.037082131E1
5.031239650E-1,4.999619961E0,-3.123413324E0,-7.743160725E0,9.731826579E0
5.055267260E-1,5.076231480E0,-3.089895964E0,-7.633032322E0,9.673611814E0
5.079301630E-1,5.162419319E0,-3.087501764E0,-8.851628304E0,1.070208223E1
5.103331840E-1,5.195936203E0,-3.123413324E0,-7.214064598E0,9.423173130E0
5.127358920E-1,5.298882484E0,-3.065955162E0,-8.956969261E0,1.084921817E1
5.151390170E-1,5.320429802E0,-3.109048843E0,-7.975388050E0,1.007868903E1
5.175421940E-1,5.416193485E0,-3.109048843E0,-8.044816971E0,1.018432210E1
5.199459440E-1,5.514351845E0,-3.099472284E0,-9.088644028E0,1.107331274E1
5.223493820E-1,5.533504009E0,-3.135383844E0,-7.470232964E0,9.810946896E0
5.247521420E-1,5.657997608E0,-3.075531244E0,-9.229896545E0,1.125445777E1
5.271552150E-1,5.617297649E0,-3.137778044E0,-8.068758011E0,1.032010367E1
5.295580280E-1,5.727426052E0,-3.106654644E0,-8.238739014E0,1.050388180E1
5.319608920E-1,5.777702332E0,-3.092290163E0,-9.069491386E0,1.118927061E1
5.343644340E-1,5.799249172E0,-3.130595684E0,-7.465445042E0,9.958151935E0
5.367678710E-1,5.902195454E0,-3.070743322E0,-9.136526108E0,1.130227787E1
5.391714130E-1,5.875860214E0,-3.137778044E0,-7.779072285E0,1.024135489E1
5.415746940E-1,5.966835976E0,-3.097078323E0,-8.063969612E0,1.049869666E1
5.439772990E-1,5.945289135E0,-3.101866484E0,-8.636158943E0,1.093395079E1
5.463806320E-1,5.921348095E0,-3.147354364E0,-7.034507751E0,9.718667710E0
5.487836530E-1,6.005141735E0,-3.101866484E0,-8.672071457E0,1.099491366E1
5.511862050E-1,5.906983852E0,-3.161719084E0,-7.156606674E0,9.803363958E0
5.535894340E-1,5.930924892E0,-3.125807524E0,-7.580362320E0,1.011970531E1
5.559927150E-1,5.906983852E0,-3.149748564E0,-7.999329090E0,1.043085040E1
5.583960490E-1,5.844737053E0,-3.207206726E0,-6.483864784E0,9.299872512E0
5.607990170E-1,5.875860214E0,-3.192842245E0,-8.164522171E0,1.055364378E1
5.632015690E-1,5.756155491E0,-3.257482767E0,-6.548505306E0,9.307386409E0
5.656048510E-1,5.796854973E0,-3.257482767E0,-7.190123558E0,9.793497758E0
5.680077670E-1,5.744184971E0,-3.276635647E0,-7.522903442E0,1.001629065E1
5.704104760E-1,5.722638130E0,-3.329305887E0,-6.198966980E0,9.069732988E0
5.728138610E-1,5.760943890E0,-3.288606167E0,-7.949053288E0,1.035330156E1
5.752170380E-1,5.653209209E0,-3.381976128E0,-6.378524303E0,9.169629719E0
5.776205800E-1,5.705879211E0,-3.365217209E0,-7.226035118E0,9.802924460E0
5.800239650E-1,5.681938171E0,-3.408311129E0,-7.477415562E0,9.990633094E0
5.824268820E-1,5.662785530E0,-3.451404810E0,-6.392889023E0,9.211317234E0
5.848304760E-1,5.729820251E0,-3.446616888E0,-8.200433731E0,1.058097923E1
5.872336530E-1,5.662785530E0,-3.516045570E0,-6.603569508E0,9.382795247E0
5.896363090E-1,5.710667610E0,-3.494498491E0,-7.738372803E0,1.023257826E1
5.920391740E-1,5.681938171E0,-3.532804251E0,-7.879623890E0,1.033700149E1
5.944421420E-1,5.665179729E0,-3.530410051E0,-6.948319435E0,9.635206249E0
5.968457880E-1,5.729820251E0,-3.518439531E0,-8.734316826E0,1.102263794E1
5.992492260E-1,5.643632889E0,-3.585474253E0,-7.091965675E0,9.746906942E0
6.016519340E-1,5.732214451E0,-3.532804251E0,-8.322532654E0,1.070530421E1
6.040554240E-1,5.696303368E0,-3.573503733E0,-8.260286331E0,1.065129716E1
6.064588090E-1,5.691514492E0,-3.602233171E0,-7.439110279E0,1.003542639E1
6.088615690E-1,5.701091290E0,-3.559139252E0,-9.076673508E0,1.129406552E1
6.112644340E-1,5.634056568E0,-3.618991852E0,-7.376863480E0,9.962821399E0
6.136674030E-1,5.713061810E0,-3.563927650E0,-8.681647301E0,1.098688561E1
6.160710490E-1,5.631662369E0,-3.592656851E0,-8.387172699E0,1.072228848E1
6.184741740E-1,5.653209209E0,-3.590262651E0,-7.656972885E0,1.017241338E1
6.208767260E-1,5.653209209E0,-3.542380571E0,-9.167649269E0,1.133812275E1
6.232802670E-1,5.583780289E0,-3.566321611E0,-7.386440277E0,9.922537584E0
6.256833400E-1,5.657997608E0,-3.513651609E0,-8.700799942E0,1.095730826E1
6.280858920E-1,5.533504009E0,-3.547168732E0,-8.214797974E0,1.052069287E1
6.304889130E-1,5.509562969E0,-3.528016090E0,-7.580362320E0,1.001319502E1
6.328920900E-1,5.528716087E0,-3.516045570E0,-8.925845146E0,1.107248796E1
6.352954760E-1,5.416193485E0,-3.554351091E0,-7.106329918E0,9.616053684E0
6.376983920E-1,5.437740326E0,-3.499286890E0,-8.506877899E0,1.068555100E1
6.401010490E-1,5.353946686E0,-3.535198212E0,-7.798224926E0,1.009825151E1
6.425042780E-1,5.332400322E0,-3.516045570E0,-7.345740318E0,9.734319209E0
6.449073510E-1,5.325217724E0,-3.501681089E0,-8.602642059E0,1.070631424E1
6.473105280E-1,5.210300922E0,-3.575898170E0,-6.783127308E0,9.270657986E0
6.497139650E-1,5.274941444E0,-3.511257410E0,-8.296197891E0,1.043938865E1
6.521172460E-1,5.164813042E0,-3.561533213E0,-7.427139759E0,9.722253730E0
6.545208920E-1,5.193542004E0,-3.566321611E0,-7.173365116E0,9.547182593E0
6.569241210E-1,5.169600964E0,-3.556745291E0,-8.332109451E0,1.043068833E1
6.593269860E-1,5.104960442E0,-3.607021332E0,-6.591598988E0,9.084074043E0
6.617306320E-1,5.155236721E0,-3.537592649E0,-8.253103256E0,1.035397222E1
6.641337050E-1,5.071443081E0,-3.580686331E0,-7.295464039E0,9.579386466E0
6.665364650E-1,5.071443081E0,-3.571109772E0,-7.261946678E0,9.550299968E0
6.689398510E-1,5.059472561E0,-3.554351091E0,-8.339291573E0,1.038149595E1
6.713432880E-1,4.973285198E0,-3.583080292E0,-6.696939468E0,9.078602772E0
6.737469340E-1,5.030743599E0,-3.511257410E0,-8.442237854E0,1.043593262E1
6.761500590E-1,4.911038876E0,-3.530410051E0,-7.362499237E0,9.528299585E0
6.785529240E-1,4.927797318E0,-3.496892929E0,-7.482203484E0,9.617422499E0
6.809563610E-1,4.894279957E0,-3.458587170E0,-8.423084259E0,1.033751179E1
6.833596420E-1,4.839215755E0,-3.472951889E0,-6.842979431E0,9.072252832E0
6.857626630E-1,4.889491558E0,-3.408311129E0,-8.638552666E0,1.049515624E1
6.881661010E-1,4.798516273E0,-3.420281649E0,-7.431927681E0,9.484599835E0
6.905696420E-1,4.872733116E0,-3.374793768E0,-7.800619125E0,9.797061791E0
6.929732880E-1,4.870338917E0,-3.346064568E0,-8.619400978E0,1.045037906E1
6.953763610E-1,4.853579998E0,-3.374793768E0,-7.130270958E0,9.262139910E0
6.977790170E-1,4.980467796E0,-3.276635647E0,-8.947392464E0,1.075161535E1
7.001824030E-1,4.956526756E0,-3.326911926E0,-7.611485004E0,9.673169306E0
7.025856840E-1,5.066655159E0,-3.252694845E0,-8.140581131E0,1.012521997E1
7.049887570E-1,5.078625679E0,-3.240724325E0,-8.739106178E0,1.061445758E1
7.073919340E-1,5.112142563E0,-3.257482767E0,-7.369681358E0,9.542400059E0
7.097951110E-1,5.215089321E0,-3.214389086E0,-9.138919830E0,1.100224111E1
7.121987570E-1,5.174389839E0,-3.243118286E0,-7.647396564E0,9.786460067E0
7.146020900E-1,5.255788803E0,-3.204812765E0,-8.310562134E0,1.034212666E1
7.170049550E-1,5.236636162E0,-3.178477526E0,-8.518848419E0,1.049265725E1
7.194086010E-1,5.274941444E0,-3.161719084E0,-8.040028572E0,1.012242729E1
7.218117260E-1,5.277335644E0,-3.154536486E0,-8.190856934E0,1.024165559E1
7.242143820E-1,5.277335644E0,-3.137778044E0,-8.080728531E0,1.014860070E1
7.266177150E-1,5.236636162E0,-3.137778044E0,-8.075940132E0,1.012367613E1
7.290212050E-1,5.207906723E0,-3.085107803E0,-7.972994328E0,1.001043561E1
7.314247990E-1,5.169600964E0,-3.085107803E0,-7.927505970E0,9.954296318E0
7.338278710E-1,5.102566719E0,-3.087501764E0,-7.903564930E0,9.901272285E0
7.362307360E-1,5.061866760E0,-3.056378603E0,-7.879623890E0,9.851518559E0
7.386345900E-1,5.011590481E0,-3.063560724E0,-7.855683327E0,9.808832958E0
7.410379760E-1,4.975678921E0,-3.063560724E0,-7.805407047E0,9.750239187E0
7.434406320E-1,4.872733116E0,-3.046802282E0,-7.819771767E0,9.704399139E0
7.458437050E-1,4.832033157E0,-3.042014122E0,-7.838924408E0,9.697996196E0
7.482468300E-1,4.798516273E0,-3.051590443E0,-7.862865448E0,9.703742356E0
7.506504240E-1,4.733875275E0,-3.042014122E0,-7.872442245E0,9.676712869E0
7.530539130E-1,4.685993195E0,-3.046802282E0,-7.891594410E0,9.670511812E0
7.554568820E-1,4.664446831E0,-3.056378603E0,-7.946659088E0,9.708136024E0
7.578601630E-1,4.642899513E0,-3.030043602E0,-8.001723289E0,9.734744769E0
7.602628190E-1,4.662052155E0,-3.013284922E0,-8.054393768E0,9.782017956E0
7.626653190E-1,4.669234753E0,-3.013284922E0,-8.090305328E0,9.815023153E0
7.650686530E-1,4.688387871E0,-3.001314402E0,-8.150157928E0,9.869850213E0
7.674717780E-1,4.700358391E0,-2.994132042E0,-8.198040009E0,9.912923669E0
7.698747990E-1,4.717116833E0,-2.972584963E0,-8.289014816E0,9.989755713E0
7.722775070E-1,4.748239517E0,-2.941461802E0,-8.341685295E0,1.003900840E1
7.746801630E-1,4.748239517E0,-2.903156281E0,-8.391962051E0,1.006971310E1
7.770838610E-1,4.750634193E0,-2.893579721E0,-8.468572617E0,1.013203094E1
7.794874030E-1,4.805697918E0,-2.848092079E0,-8.516453743E0,1.018510409E1
7.818906320E-1,4.820062637E0,-2.824151039E0,-8.569125175E0,1.022930786E1
7.842939650E-1,4.867944717E0,-2.776268959E0,-8.602642059E0,1.026693749E1
7.866972460E-1,4.899068356E0,-2.761904478E0,-8.626583099E0,1.029790867E1
7.891007880E-1,4.942161560E0,-2.757116318E0,-8.691224098E0,1.037130790E1
7.915039130E-1,4.973285198E0,-2.716416597E0,-8.712770462E0,1.039350056E1
7.939068300E-1,5.002014160E0,-2.718810558E0,-8.712770462E0,1.040790304E1
7.963100590E-1,5.021167278E0,-2.692475557E0,-8.741499901E0,1.043433591E1
7.987125590E-1,5.035531521E0,-2.685293436E0,-8.731923103E0,1.043138819E1
8.011150590E-1,5.054684639E0,-2.656563997E0,-8.731923103E0,1.043329527E1
8.035180800E-1,5.066655159E0,-2.651775837E0,-8.707982063E0,1.041786260E1
8.059211530E-1,5.069049358E0,-2.642199516E0,-8.657706261E0,1.037460155E1
8.083251110E-1,5.064260960E0,-2.651775837E0,-8.581094742E0,1.031086035E1
8.107288610E-1,5.035531521E0,-2.644593477E0,-8.530818939E0,1.025306413E1
8.131321940E-1,5.033137798E0,-2.654170036E0,-8.485331535E0,1.021655255E1
8.155362570E-1,5.045108318E0,-2.630228996E0,-8.430267334E0,1.017057667E1
8.179400070E-1,5.028349876E0,-2.639805317E0,-8.344079971E0,1.009339116E1
8.203434440E-1,5.023561001E0,-2.644593477E0,-8.284227371E0,1.004283142E1
8.227471420E-1,5.013984680E0,-2.656563997E0,-8.217191696E0,9.985970860E0
8.251505800E-1,5.006802559E0,-2.680505037E0,-8.138187408E0,9.923873912E0
8.275545380E-1,5.009196758E0,-2.690081596E0,-8.121428490E0,9.913939271E0
8.299582880E-1,5.030743599E0,-2.725993156E0,-8.092699051E0,9.911165309E0
8.323616740E-1,5.013984680E0,-2.737963676E0,-8.054393768E0,9.874702347E0
8.347656320E-1,5.016379356E0,-2.769086838E0,-8.056787491E0,9.886542795E0
8.371691740E-1,5.035531521E0,-2.771480799E0,-8.063969612E0,9.902792001E0
8.395725070E-1,5.049896240E0,-2.793027878E0,-8.075940132E0,9.925888665E0
8.419762570E-1,5.059472561E0,-2.773874998E0,-8.075940132E0,9.925394406E0
8.443801110E-1,5.064260960E0,-2.781057358E0,-8.080728531E0,9.933740116E0
8.467842260E-1,5.078625679E0,-2.785845280E0,-8.099881172E0,9.957984119E0
8.491877150E-1,5.054684639E0,-2.771480799E0,-8.095092773E0,9.937880540E0
8.515908400E-1,5.066655159E0,-2.766692638E0,-8.116640091E0,9.960192218E0
8.539946420E-1,5.081019878E0,-2.742751598E0,-8.162128448E0,9.997989305E0
8.563980800E-1,5.078625679E0,-2.718810558E0,-8.193250656E0,1.001567401E1
8.588012050E-1,5.088202000E0,-2.687687397E0,-8.226768494E0,1.003958082E1
8.612046940E-1,5.102566719E0,-2.668534517E0,-8.269862175E0,1.007709700E1
8.636082880E-1,5.124113083E0,-2.651775837E0,-8.298591614E0,1.010717927E1
8.660124030E-1,5.162419319E0,-2.611076355E0,-8.327321053E0,1.013965329E1
8.684159440E-1,5.183965683E0,-2.594317675E0,-8.317744255E0,1.013848381E1
8.708189130E-1,5.217483044E0,-2.541647434E0,-8.329714775E0,1.015215491E1
8.732228190E-1,5.229453564E0,-2.508130074E0,-8.360837936E0,1.017553498E1
8.756264130E-1,5.277335644E0,-2.479400873E0,-8.377596855E0,1.020695005E1
8.780297460E-1,5.284518242E0,-2.477006912E0,-8.394355774E0,1.022384004E1
8.804337050E-1,5.308459282E0,-2.429124832E0,-8.377596855E0,1.021099978E1
8.828375070E-1,5.341976166E0,-2.421942234E0,-8.339291573E0,1.019540570E1
8.852413090E-1,5.330005646E0,-2.407577753E0,-8.291409492E0,1.014656899E1
8.876446940E-1,5.339581966E0,-2.381242752E0,-8.248315811E0,1.011020110E1
8.900479240E-1,5.337188244E0,-2.386031151E0,-8.205221176E0,1.007493809E1
8.924518300E-1,5.337188244E0,-2.374060631E0,-8.142974854E0,1.002146605E1
8.948550590E-1,5.349158764E0,-2.357301712E0,-8.078334808E0,9.971452458E0
8.972575590E-1,5.322823524E0,-2.376454592E0,-8.030452728E0,9.923112300E0
8.996604760E-1,5.310853004E0,-2.405183792E0,-7.982570648E0,9.884912891E0
9.020638090E-1,5.284518242E0,-2.407577753E0,-7.927505970E0,9.826897506E0
9.044677670E-1,5.298882484E0,-2.453065872E0,-7.898777008E0,9.822747374E0
9.068709440E-1,5.322823524E0,-2.474612474E0,-7.879623890E0,9.825712688E0
9.092738610E-1,5.330005646E0,-2.496159554E0,-7.853289127E0,9.813965703E0
9.116780800E-1,5.301276684E0,-2.532071114E0,-7.831742287E0,9.790357800E0
9.140817780E-1,5.332400322E0,-2.589529276E0,-7.822165966E0,9.814603174E0
9.164847460E-1,5.320429802E0,-2.618258476E0,-7.795830727E0,9.794755099E0
9.188880800E-1,5.310853004E0,-2.682899237E0,-7.757524967E0,9.776620150E0
9.212915690E-1,5.291700363E0,-2.697263718E0,-7.750343323E0,9.764483904E0
9.236955800E-1,5.286911964E0,-2.761904478E0,-7.673731804E0,9.719347420E0
9.260990690E-1,5.236636162E0,-2.790633678E0,-7.618667603E0,9.656815762E0
9.285020900E-1,5.174389839E0,-2.836121559E0,-7.527691841E0,9.564728964E0
9.309059960E-1,5.143266201E0,-2.893579721E0,-7.439110279E0,9.495596483E0
9.333095380E-1,5.078625679E0,-2.958220482E0,-7.336163521E0,9.400149063E0
9.357126110E-1,4.999619961E0,-3.008496523E0,-7.247581959E0,9.304552398E0
9.381161530E-1,4.877521038E0,-3.039619923E0,-7.180547714E0,9.197269498E0
9.405195380E-1,4.772180557E0,-3.099472284E0,-7.101541996E0,9.100128265E0
9.429231320E-1,4.609382153E0,-3.142565966E0,-7.051266193E0,8.991244608E0
9.453265690E-1,4.425036430E0,-3.207206726E0,-7.020142555E0,8.896601817E0
9.477297460E-1,4.223932266E0,-3.245512247E0,-7.005778313E0,8.800902414E0
9.501335490E-1,4.022828102E0,-3.288606167E0,-7.039295673E0,8.749271972E0
9.525366740E-1,3.828905582E0,-3.336488008E0,-7.077600956E0,8.711205742E0
9.549394340E-1,3.687654018E0,-3.338882208E0,-7.168577194E0,8.725561618E0
9.573427670E-1,3.536825657E0,-3.370005608E0,-7.307434559E0,8.790032614E0
9.597458400E-1,3.424302816E0,-3.391552210E0,-7.489386082E0,8.906142827E0
9.621492260E-1,3.352480173E0,-3.398734808E0,-7.625849724E0,8.996894221E0
9.645522460E-1,3.297415972E0,-3.386764288E0,-7.793436527E0,9.114865733E0
9.669549550E-1,3.266292334E0,-3.374793768E0,-7.958629608E0,9.241086723E0
9.693584440E-1,3.223198652E0,-3.336488008E0,-8.147763252E0,9.375884374E0
9.717612570E-1,3.223198652E0,-3.312546968E0,-8.286621094E0,9.488417472E0
9.741638090E-1,3.199257612E0,-3.279029846E0,-8.411113739E0,9.577793083E0
9.765670380E-1,3.194469690E0,-3.219177246E0,-8.552366257E0,9.680429088E0
9.789700590E-1,3.201651812E0,-3.173689365E0,-8.686434746E0,9.786573818E0
9.813731320E-1,3.237563372E0,-3.116230965E0,-8.796564102E0,9.877866774E0
9.837758920E-1,3.230381012E0,-3.068349123E0,-8.925845146E0,9.976013202E0
9.861782360E-1,3.232775211E0,-3.022861242E0,-9.035974503E0,1.006167784E1
9.885814650E-1,3.275868893E0,-2.982161522E0,-9.134132385E0,1.015169832E1
9.909842780E-1,3.318962574E0,-2.951038361E0,-9.241866112E0,1.025359592E1
9.933866210E-1,3.342903614E0,-2.910338640E0,-9.289748192E0,1.029293433E1
9.957897460E-1,3.359662533E0,-2.881609440E0,-9.349600792E0,1.034437240E1
9.981929760E-1,3.388391733E0,-2.845697880E0,-9.395089149E0,1.038493597E1
1.000596778E0,3.407544374E0,-2.821756840E0,-9.414240837E0,1.040199985E1
1.003000059E0,3.457820415E0,-2.821756840E0,-9.440577507E0,1.044238179E1
1.005402507E0,3.457820415E0,-2.773874998E0,-9.435788155E0,1.042520996E1
1.007805632E0,3.520066977E0,-2.764298677E0,-9.428606033E0,1.043699336E1
1.010208392E0,3.522461176E0,-2.761904478E0,-9.411847115E0,1.042203028E1
1.012611101E0,3.548796177E0,-2.752328157E0,-9.414240837E0,1.043058940E1
1.015014330E0,3.587101698E0,-2.749933958E0,-9.371148109E0,1.040422281E1
1.017417559E0,3.599072218E0,-2.769086838E0,-9.342417717E0,1.038758545E1
1.019821309E0,3.611042738E0,-2.733175278E0,-9.318476677E0,1.036068938E1
1.022224434E0,3.644560099E0,-2.733175278E0,-9.277777672E0,1.033587074E1
1.024627142E0,3.682865620E0,-2.730781078E0,-9.249049187E0,1.032306037E1
1.027030424E0,3.711594820E0,-2.723598719E0,-9.265807152E0,1.034645390E1
1.029433392E0,3.718777180E0,-2.711628437E0,-9.232290268E0,1.031588174E1
1.031836153E0,3.747506380E0,-2.702052116E0,-9.241866112E0,1.033232689E1
1.034239330E0,3.790600061E0,-2.697263718E0,-9.229896545E0,1.033609552E1
1.036642246E0,3.840876341E0,-2.668534517E0,-9.201167107E0,1.032157370E1
1.039045580E0,3.898334742E0,-2.668534517E0,-9.213136673E0,1.035374220E1
1.041448601E0,3.962975264E0,-2.663746357E0,-9.196377754E0,1.036214656E1
1.043851257E0,4.003674984E0,-2.658958435E0,-9.186801910E0,1.036806649E1
1.046254903E0,4.065921783E0,-2.639805317E0,-9.172436714E0,1.037467529E1
1.048658184E0,4.132956505E0,-2.627834797E0,-9.136526108E0,1.036643403E1
1.051060944E0,4.183232784E0,-2.627834797E0,-9.083856583E0,1.034028059E1
1.053464226E0,4.214355469E0,-2.579952955E0,-9.024003029E0,1.028832250E1
1.055867559E0,4.238296509E0,-2.560800076E0,-8.966545105E0,1.024303595E1
1.058271205E0,4.245479107E0,-2.539253235E0,-8.863598824E0,1.015062973E1
1.060674538E0,4.255055428E0,-2.524888515E0,-8.743894577E0,1.004670349E1
1.063077403E0,4.226325989E0,-2.486582994E0,-8.549972534E0,9.856315574E0
1.065481101E0,4.204779625E0,-2.472218513E0,-8.375202179E0,9.692061061E0
1.067884278E0,4.171262264E0,-2.419548273E0,-8.214797974E0,9.525573393E0
1.070286986E0,4.075498104E0,-2.407577753E0,-8.104669571E0,9.385722364E0
1.072690319E0,4.044374466E0,-2.400395632E0,-7.996934891E0,9.277382802E0
1.075093705E0,3.989310503E0,-2.359695911E0,-7.898777008E0,9.158244445E0
1.077497715E0,3.965369463E0,-2.345331430E0,-7.848501205E0,9.100753028E0
1.079901309E0,3.958187342E0,-2.323784351E0,-7.819771767E0,9.067306724E0
1.082304330E0,3.960581064E0,-2.321390390E0,-7.848501205E0,9.092525880E0
1.084708184E0,4.013251781E0,-2.314208031E0,-7.874835968E0,9.136453918E0
1.087111830E0,4.056344986E0,-2.307025671E0,-7.877230167E0,9.155711726E0
1.089514955E0,4.116197586E0,-2.309419870E0,-7.913141727E0,9.213811085E0
1.091917976E0,4.180838585E0,-2.318996191E0,-7.953841209E0,9.280126324E0
1.094321049E0,4.223932266E0,-2.333360910E0,-8.013693810E0,9.354435600E0
1.096724746E0,4.259843826E0,-2.350119591E0,-8.047210693E0,9.403559510E0
1.099127871E0,4.305331707E0,-2.374060631E0,-8.090305328E0,9.467052619E0
1.101530632E0,4.348425388E0,-2.405183792E0,-8.145369530E0,9.541528033E0
1.103934278E0,4.360395432E0,-2.421942234E0,-8.207615852E0,9.604364137E0
1.106337663E0,4.377154827E0,-2.462642193E0,-8.286621094E0,9.689797733E0
1.108740632E0,4.408277512E0,-2.469824314E0,-8.351262093E0,9.760969281E0
1.111144278E0,4.429824829E0,-2.498553514E0,-8.432661057E0,9.847633735E0
1.113547976E0,4.434613228E0,-2.527282715E0,-8.514060020E0,9.926840909E0
1.115951621E0,4.422642708E0,-2.553617716E0,-8.523636818E0,9.936453923E0
1.118354903E0,4.396306992E0,-2.546435595E0,-8.564335823E0,9.957896238E0
1.120757924E0,4.338849068E0,-2.556012154E0,-8.530818939E0,9.906244553E0
1.123161309E0,4.255055428E0,-2.548829556E0,-8.487725258E0,9.830743047E0
1.125564174E0,4.211961746E0,-2.565588236E0,-8.439843178E0,9.775163304E0
1.127966674E0,4.140138626E0,-2.575164795E0,-8.420690536E0,9.730377725E0
1.130369955E0,4.120985985E0,-2.603893757E0,-8.391962051E0,9.705040714E0
1.132773340E0,4.113803864E0,-2.630228996E0,-8.332109451E0,9.657408281E0
1.135176830E0,4.147321224E0,-2.623046875E0,-8.210010529E0,9.564775017E0
1.137580319E0,4.221538067E0,-2.654170036E0,-8.075940132E0,9.491407232E0
1.139983288E0,4.314908028E0,-2.690081596E0,-7.958629608E0,9.444297513E0
1.142386569E0,4.389125347E0,-2.706840038E0,-7.788648605E0,9.341009121E0
1.144789590E0,4.451371670E0,-2.747539759E0,-7.582756042E0,9.212050459E0
1.147192507E0,4.539953232E0,-2.776268959E0,-7.364892960E0,9.086280481E0
1.149595632E0,4.626140594E0,-2.828939438E0,-7.170970917E0,8.990378136E0
1.151999017E0,4.745845795E0,-2.869638920E0,-6.977049351E0,8.912749154E0
1.154403184E0,4.903856277E0,-2.905550241E0,-6.895649433E0,8.946508241E0
1.156806882E0,5.100172043E0,-2.946249962E0,-6.886073112E0,9.061464927E0
1.159209799E0,5.330005646E0,-2.967797041E0,-6.914802551E0,9.221240360E0
1.161613288E0,5.622086048E0,-2.974979401E0,-7.012960434E0,9.467838614E0
1.164016621E0,5.938107014E0,-2.984555483E0,-7.147030354E0,9.759545543E0
1.166419434E0,6.256522179E0,-3.008496523E0,-7.295464039E0,1.007069594E1
1.168822455E0,6.584513664E0,-3.001314402E0,-7.367287159E0,1.032669494E1
1.171225580E0,6.876593590E0,-3.037225723E0,-7.393621922E0,1.054409430E1
1.173629121E0,7.106427193E0,-3.025255442E0,-7.427139759E0,1.071521735E1
1.176032351E0,7.293166637E0,-3.063560724E0,-7.403198719E0,1.083434517E1
1.178435319E0,7.410477638E0,-3.061166763E0,-7.326587677E0,1.086116052E1
1.180839017E0,7.484694481E0,-3.020467043E0,-7.199700356E0,1.081570885E1
1.183242194E0,7.525394440E0,-3.034831762E0,-7.022537231E0,1.073115998E1
1.185644903E0,7.513423920E0,-3.044408083E0,-6.831008911E0,1.060106798E1
1.188047976E0,7.518212318E0,-3.044408083E0,-6.651451588E0,1.048969710E1
1.190451153E0,7.499059200E0,-3.044408083E0,-6.428800583E0,1.033604307E1
1.192854746E0,7.463147640E0,-3.042014122E0,-6.232484341E0,1.018804612E1
1.195258080E0,7.463147640E0,-3.020467043E0,-6.048138618E0,1.006984482E1
1.197660996E0,7.400901318E0,-3.025255442E0,-5.830275536E0,9.895333426E0
1.200064746E0,7.326683998E0,-3.018073082E0,-5.621989250E0,9.715751472E0
1.202468340E0,7.276408195E0,-2.991737843E0,-5.420884609E0,9.554192875E0
1.204871465E0,7.202191353E0,-3.025255442E0,-5.471160889E0,9.537155354E0
1.207274694E0,7.118397713E0,-2.958220482E0,-4.867847919E0,9.116940155E0
1.209677663E0,7.032210350E0,-2.974979401E0,-5.291603565E0,9.289970567E0
1.212080996E0,6.953204632E0,-2.994132042E0,-4.049066067E0,8.585267459E0
1.214484226E0,6.941234112E0,-2.946249962E0,-5.760846615E0,9.489387417E0
1.216887090E0,6.821529388E0,-2.967797041E0,-4.259747028E0,8.572428315E0
1.219290736E0,6.840682030E0,-2.917520761E0,-5.133593082E0,9.036627466E0
1.221694017E0,6.773647785E0,-2.917520761E0,-5.358638287E0,9.116426712E0
1.224096674E0,6.716189384E0,-2.915126801E0,-4.525492191E0,8.607278530E0
1.226499746E0,6.728159428E0,-2.845697880E0,-6.218119621E0,9.593286055E0
1.228903080E0,6.639577866E0,-2.912732601E0,-4.908547401E0,8.755674904E0
1.231306830E0,6.656336784E0,-2.874427080E0,-5.981103897E0,9.399082628E0
1.233710215E0,6.567755222E0,-2.907944679E0,-6.084050179E0,9.413140682E0
1.236113340E0,6.505507946E0,-2.951038361E0,-5.423279285E0,8.968958649E0
1.238517090E0,6.443261623E0,-2.931885481E0,-7.060842514E0,9.998353356E0
1.240920215E0,6.287645340E0,-3.001314402E0,-5.746481895E0,9.031302577E0
1.243323028E0,6.249339581E0,-2.991737843E0,-7.084783554E0,9.909535737E0
1.245726413E0,6.060205936E0,-3.020467043E0,-7.127877235E0,9.831375846E0
1.248129746E0,5.976412773E0,-3.042014122E0,-6.589205265E0,9.401541660E0
1.250533132E0,5.899801254E0,-3.037225723E0,-8.265073776E0,1.059923768E1
1.252936361E0,5.746579170E0,-3.116230965E0,-6.826220512E0,9.451526547E0
1.255339434E0,5.717849731E0,-3.077925682E0,-8.255497932E0,1.050336509E1
1.257743184E0,5.602932930E0,-3.144960403E0,-8.040028572E0,1.029202083E1
1.260146465E0,5.528716087E0,-3.168901443E0,-7.597120762E0,9.915890369E0
1.262549226E0,5.466469765E0,-3.166507006E0,-9.186801910E0,1.114927745E1
1.264952507E0,5.310853004E0,-3.216783285E0,-7.609091282E0,9.820953338E0
1.267355892E0,5.284518242E0,-3.168901443E0,-9.129343987E0,1.101421768E1
1.269759799E0,5.090596199E0,-3.178477526E0,-8.672071457E0,1.054617051E1
1.272163392E0,4.961314678E0,-3.166507006E0,-8.320138931E0,1.019147299E1
1.274566413E0,4.815274715E0,-3.094684124E0,-9.792509079E0,1.134271460E1
1.276970319E0,4.633323193E0,-3.101866484E0,-8.171704292E0,9.892725132E0
1.279373913E0,4.556712151E0,-3.022861242E0,-9.790115356E0,1.121372705E1
1.281777090E0,4.389125347E0,-3.006102562E0,-9.119767189E0,1.055799354E1
1.284180840E0,4.360395432E0,-2.965402842E0,-8.923451424E0,1.036506863E1
1.286584538E0,4.353213787E0,-2.905550241E0,-1.015880585E1,1.142777444E1
1.288988392E0,4.317302227E0,-2.922309160E0,-8.475754738E0,9.950749104E0
1.291392090E0,4.432218552E0,-2.840909719E0,-1.010853004E1,1.139726761E1
1.293795528E0,4.410672188E0,-2.845697880E0,-9.162860870E0,1.055983167E1
1.296199330E0,4.530376434E0,-2.836121559E0,-9.057520866E0,1.051696631E1
1.298602559E0,4.599805832E0,-2.800209999E0,-1.009177113E1,1.143867275E1
1.301005528E0,4.611776352E0,-2.826545000E0,-8.379991531E0,9.974071176E0
1.303408757E0,4.750634193E0,-2.740357637E0,-9.996006966E0,1.140167709E1
1.305812038E0,4.791333675E0,-2.793027878E0,-9.510004997E0,1.100899987E1
1.308215840E0,4.832033157E0,-2.687687397E0,-8.631371498E0,1.025050154E1
1.310619434E0,4.812880516E0,-2.649381876E0,-8.834870338E0,1.040374822E1
1.313022611E0,4.702752113E0,-2.599105835E0,-8.851628304E0,1.035483231E1
1.315426465E0,4.489676952E0,-2.539253235E0,-8.506877899E0,9.948466099E0
1.317829642E0,4.219144344E0,-2.467430353E0,-8.475754738E0,9.784058970E0
1.320232403E0,3.910305262E0,-2.407577753E0,-8.195645332E0,9.394440925E0
1.322635528E0,3.603860378E0,-2.352513552E0,-8.087910652E0,9.161682616E0
1.325038340E0,3.402756214E0,-2.278296471E0,-7.972994328E0,8.963148063E0
1.327441726E0,3.275868893E0,-2.225626230E0,-7.812589645E0,8.759068791E0
1.329844903E0,3.314174414E0,-2.172955990E0,-7.656972885E0,8.621758727E0
1.332247819E0,3.527249098E0,-2.137044668E0,-7.587543964E0,8.635928990E0
1.334651309E0,3.821723461E0,-2.122680187E0,-7.506144524E0,8.686400117E0
1.337054382E0,4.228720665E0,-2.115497828E0,-7.451080799E0,8.824738783E0
1.339457246E0,4.623746872E0,-2.122680187E0,-7.410381317E0,8.988801788E0
1.341860528E0,4.985255718E0,-2.146620989E0,-7.446292400E0,9.214555158E0
1.344263913E0,5.267759323E0,-2.196897030E0,-7.489386082E0,9.416291665E0
1.346667976E0,5.478440285E0,-2.254355669E0,-7.532480240E0,9.582989408E0
1.349071621E0,5.555051327E0,-2.278296471E0,-7.582756042E0,9.671991483E0
1.351474799E0,5.578992367E0,-2.340543032E0,-7.625849724E0,9.734314641E0
1.353878549E0,5.521533489E0,-2.405183792E0,-7.735978127E0,9.803958319E0
1.356281778E0,5.444922447E0,-2.436307192E0,-7.822165966E0,9.837126287E0
1.358684903E0,5.322823524E0,-2.465036392E0,-7.913141727E0,9.850211505E0
1.361088601E0,5.222271442E0,-2.493765354E0,-8.035240173E0,9.902326459E0
1.363492351E0,5.112142563E0,-2.479400873E0,-8.109457970E0,9.901754331E0
1.365896309E0,4.999619961E0,-2.486582994E0,-8.164522171E0,9.891345562E0
1.368299903E0,4.896674156E0,-2.443489313E0,-8.236345291E0,9.888652161E0
1.370703184E0,4.791333675E0,-2.390819073E0,-8.317744255E0,9.892308311E0
1.373106986E0,4.642899513E0,-2.309419870E0,-8.322532654E0,9.805839373E0
1.375510215E0,4.525588512E0,-2.290266991E0,-8.289014816E0,9.717717885E0
1.377912819E0,4.348425388E0,-2.244779110E0,-8.210010529E0,9.557829748E0
1.380315944E0,4.135350704E0,-2.194503069E0,-8.097487450E0,9.353409654E0
1.382719121E0,3.960581064E0,-2.172955990E0,-8.016087532E0,9.201391168E0
1.385122507E0,3.771447420E0,-2.137044668E0,-7.944264889E0,9.049979015E0
1.387525528E0,3.601466417E0,-2.101133108E0,-7.910747528E0,8.942328955E0
1.389928028E0,3.488943577E0,-2.086768627E0,-7.886806488E0,8.872939038E0
1.392331465E0,3.385997534E0,-2.062827587E0,-7.941870689E0,8.876572931E0
1.394734746E0,3.299809933E0,-2.043674707E0,-8.025664330E0,8.914967181E0
1.397137559E0,3.302203894E0,-2.014945745E0,-8.188463211E0,9.056240206E0
1.399540788E0,3.338115454E0,-2.002975225E0,-8.332109451E0,9.196682687E0
1.401944069E0,3.362056494E0,-1.993398666E0,-8.511666298E0,9.366190542E0
1.404347715E0,3.445849895E0,-1.998186827E0,-8.727134705E0,9.593201356E0
1.406750840E0,3.510490656E0,-1.986216307E0,-8.909087181E0,9.779592745E0
1.409153601E0,3.532037497E0,-1.983822227E0,-9.038368225E0,9.904692811E0
1.411556986E0,3.565554857E0,-1.988610506E0,-9.150891304E0,1.002030762E1
1.413959851E0,3.570343256E0,-1.976639986E0,-9.234683990E0,1.009622925E1
1.416362611E0,3.522461176E0,-1.962275386E0,-9.263413429E0,1.010292462E1
1.418765996E0,3.505702496E0,-1.945516706E0,-9.292141914E0,1.012022167E1
1.421169434E0,3.474579096E0,-1.931152105E0,-9.284959793E0,1.010012508E1
1.423573184E0,3.378815174E0,-1.904816985E0,-9.249049187E0,1.002943820E1
1.425976205E0,3.328539133E0,-1.878481984E0,-9.198773384E0,9.961189643E0
1.428379017E0,3.292627573E0,-1.852146864E0,-9.184408188E0,9.931022007E0
1.430782767E0,3.242351532E0,-1.828205824E0,-9.119767189E0,9.850143835E0
1.433186153E0,3.213622332E0,-1.768353343E0,-9.095826149E0,9.807573368E0
1.435588965E0,3.192075491E0,-1.730047822E0,-9.112585068E0,9.809261849E0
1.437992246E0,3.213622332E0,-1.660618901E0,-9.170042992E0,9.857723474E0
1.440395944E0,3.235169172E0,-1.612736940E0,-9.210742950E0,9.894696848E0
1.442799851E0,3.309386492E0,-1.562460780E0,-9.282566071E0,9.977943450E0
1.445202924E0,3.397967815E0,-1.521761179E0,-9.423818588E0,1.013263535E1
1.447605892E0,3.484155416E0,-1.483455539E0,-9.569858551E0,1.029184978E1
1.450009851E0,3.601466417E0,-1.423603058E0,-9.739839554E0,1.048149229E1
1.452413132E0,3.733141661E0,-1.385297537E0,-9.900242805E0,1.067099824E1
1.454815736E0,3.862423182E0,-1.349386096E0,-1.002952480E1,1.083192150E1
1.457219017E0,3.979733706E0,-1.306292295E0,-1.012050152E1,1.095304665E1
1.459622819E0,4.051557064E0,-1.282351375E0,-1.012528896E1,1.098093877E1
1.462026934E0,4.104227066E0,-1.284745455E0,-1.003431320E1,1.091708258E1
1.464430319E0,4.156897545E0,-1.284745455E0,-9.873908043E0,1.079001520E1
1.466833236E0,4.197597027E0,-1.299109936E0,-9.624921799E0,1.058048331E1
1.469236882E0,4.192809105E0,-1.325445056E0,-9.354389191E0,1.033639444E1
1.471640267E0,4.161685467E0,-1.342203856E0,-9.019215584E0,1.002334210E1
1.474043392E0,4.109015465E0,-1.358962417E0,-8.696012497E0,9.713465926E0
1.476446882E0,4.101833344E0,-1.399662256E0,-8.454208374E0,9.500406857E0
1.478850111E0,4.037192822E0,-1.428391337E0,-8.245921135E0,9.291632960E0
1.481253757E0,3.989310503E0,-1.478667498E0,-8.090305328E0,9.140792972E0
1.483657194E0,3.912698984E0,-1.512184858E0,-8.047210693E0,9.074883819E0
1.486060215E0,3.898334742E0,-1.557672739E0,-8.049604416E0,9.078518016E0
1.488464017E0,3.886364222E0,-1.600766420E0,-8.193250656E0,9.208454610E0
1.490867559E0,3.855241060E0,-1.641466022E0,-8.327321053E0,9.322101171E0
1.493270632E0,3.867211580E0,-1.653436542E0,-8.506877899E0,9.489791852E0
1.495673861E0,3.903122663E0,-1.663012981E0,-8.724740982E0,9.701602131E0
1.498077194E0,3.994098425E0,-1.701318622E0,-8.949786186E0,9.947159396E0
1.500481205E0,4.075498104E0,-1.715683222E0,-9.162860870E0,1.017404900E1
1.502884642E0,4.173655987E0,-1.713289022E0,-9.292141914E0,1.032950458E1
1.505287715E0,4.262237549E0,-1.751594663E0,-9.349600792E0,1.042352089E1
1.507691465E0,4.305331707E0,-1.799476743E0,-9.351995468E0,1.045149831E1
1.510094799E0,4.298149109E0,-1.835388064E0,-9.296931267E0,1.040555938E1
1.512497663E0,4.207173824E0,-1.866511464E0,-9.205955505E0,1.029241436E1
1.514900840E0,4.037192822E0,-1.931152105E0,-9.153285027E0,1.018876347E1
1.517304017E0,3.836087942E0,-1.971851707E0,-9.026396751E0,1.000397962E1
1.519707403E0,3.632589579E0,-2.019733667E0,-8.937815666E0,9.856955920E0
1.522110476E0,3.414726734E0,-2.074798107E0,-8.851628304E0,9.711666668E0
1.524513132E0,3.230381012E0,-2.127468348E0,-8.837264061E0,9.646694726E0
1.526916413E0,3.050823689E0,-2.158591509E0,-8.810929298E0,9.570763689E0
1.529319590E0,2.950271368E0,-2.194503069E0,-8.875569344E0,9.607063861E0
1.531722299E0,2.866477966E0,-2.259143829E0,-8.983304024E0,9.696400258E0
1.534125371E0,2.844931126E0,-2.283084869E0,-9.098219872E0,9.802230076E0
1.536528288E0,2.820990086E0,-2.321390390E0,-9.268200874E0,9.962248032E0
1.538931465E0,2.835354567E0,-2.311813831E0,-9.445364952E0,1.012909857E1
1.541334538E0,2.873660326E0,-2.318996191E0,-9.617739677E0,1.030226109E1
1.543737351E0,2.907177687E0,-2.323784351E0,-9.778143883E0,1.046249271E1
1.546140944E0,2.967030048E0,-2.280690670E0,-9.948124886E0,1.062873492E1
1.548544121E0,3.005335569E0,-2.263931751E0,-1.004867840E1,1.073002173E1
1.550946986E0,3.050823689E0,-2.213655710E0,-1.016598797E1,1.084228335E1
1.553350319E0,3.072370529E0,-2.170562029E0,-1.024020481E1,1.090928938E1
1.555753549E0,3.103493929E0,-2.134650469E0,-1.030484581E1,1.097170244E1
1.558157351E0,3.091523409E0,-2.086768627E0,-1.032639313E1,1.097936771E1
1.560560580E0,3.096311331E0,-2.041280746E0,-1.035272789E1,1.099695166E1
1.562963288E0,3.048429489E0,-2.005369186E0,-1.034315205E1,1.096791786E1
1.565366986E0,3.041247129E0,-1.988610506E0,-1.033118153E1,1.095157831E1
1.567770267E0,2.995759487E0,-1.979034066E0,-1.033118153E1,1.093729685E1
1.570173132E0,2.940695286E0,-1.935940385E0,-1.025217628E1,1.083986497E1
1.572576257E0,2.888024807E0,-1.919181585E0,-1.021387005E1,1.078643067E1
1.574979226E0,2.825778484E0,-1.914393306E0,-1.014204693E1,1.070098321E1
1.577382924E0,2.730014324E0,-1.888058305E0,-1.007980156E1,1.061226375E1
1.579786517E0,2.694103003E0,-1.885664225E0,-1.007261944E1,1.059582856E1
1.582189642E0,2.662979603E0,-1.876087785E0,-1.004628277E1,1.056120084E1
1.584593549E0,2.674950123E0,-1.892846465E0,-1.004149532E1,1.056266322E1
1.586997351E0,2.730014324E0,-1.892846465E0,-1.005346584E1,1.058810755E1
1.589400580E0,2.794655085E0,-1.897634745E0,-1.008937740E1,1.063986142E1
1.591803965E0,2.885630846E0,-1.933546185E0,-1.010374165E1,1.068415001E1
1.594207246E0,3.005335569E0,-1.921575665E0,-1.012528896E1,1.073526765E1
1.596610840E0,3.113070250E0,-1.926363826E0,-1.017556477E1,1.081407427E1
1.599014174E0,3.242351532E0,-1.945516706E0,-1.018035316E1,1.085990190E1
1.601417299E0,3.352480173E0,-1.945516706E0,-1.020190048E1,1.091342898E1
1.603821257E0,3.472184896E0,-1.945516706E0,-1.019471836E1,1.094410278E1
1.606224590E0,3.601466417E0,-1.940728426E0,-1.016838264E1,1.096051973E1
1.608627715E0,3.697230339E0,-1.940728426E0,-1.015401840E1,1.097907231E1
1.611031674E0,3.816935062E0,-1.957487226E0,-1.014444256E1,1.101410297E1
1.613435632E0,3.891152620E0,-1.971851707E0,-1.009416485E1,1.099642814E1
1.615839799E0,4.001281261E0,-1.976639986E0,-1.005586052E1,1.100171296E1
1.618243340E0,4.080286026E0,-1.998186827E0,-9.952914238E0,1.094084030E1
1.620646465E0,4.214355469E0,-1.993398666E0,-9.833209038E0,1.088239083E1
1.623050476E0,4.298149109E0,-2.022127867E0,-9.754202843E0,1.084931150E1
1.625454121E0,4.396306992E0,-2.031704187E0,-9.641680717E0,1.078968693E1
1.627857455E0,4.484889030E0,-2.086768627E0,-9.510004997E0,1.071956286E1
1.630261049E0,4.547135830E0,-2.110709667E0,-9.375936508E0,1.063201415E1
1.632664799E0,4.635717392E0,-2.149015188E0,-9.215531349E0,1.053727479E1
1.635069069E0,4.681205273E0,-2.170562029E0,-9.043155670E0,1.041170912E1
1.637472455E0,4.721904755E0,-2.230414629E0,-8.885146141E0,1.030616106E1
1.639875267E0,4.798516273E0,-2.261537790E0,-8.731923103E0,1.021698550E1
1.642278705E0,4.867944717E0,-2.318996191E0,-8.542789459E0,1.010217209E1
1.644681830E0,4.930191040E0,-2.366878033E0,-8.353655815E0,9.984611199E0
1.647084486E0,5.009196758E0,-2.419548273E0,-8.095092773E0,9.822260077E0
1.649487611E0,5.042714119E0,-2.493765354E0,-7.807801247E0,9.623387742E0
1.651890944E0,5.097778320E0,-2.541647434E0,-7.542056084E0,9.451450971E0
1.654294538E0,5.148054123E0,-2.623046875E0,-7.293070316E0,9.304392017E0
1.656697871E0,5.186360359E0,-2.694869518E0,-7.079995155E0,9.180794459E0
1.659100996E0,5.272547722E0,-2.757116318E0,-6.881285191E0,9.096897039E0
1.661504694E0,5.334794044E0,-2.826545000E0,-6.749609470E0,9.055750225E0
1.663907871E0,5.397040844E0,-2.857668400E0,-6.675392628E0,9.047385550E0
1.666310684E0,5.485621929E0,-2.910338640E0,-6.641875267E0,9.092668806E0
1.668713861E0,5.547868729E0,-2.994132042E0,-6.689757347E0,9.192199273E0
1.671117142E0,5.571809769E0,-3.006102562E0,-6.816644669E0,9.303137172E0
1.673521049E0,5.583780289E0,-3.058772802E0,-6.993807793E0,9.457697437E0
1.675924538E0,5.535898209E0,-3.068349123E0,-7.187729836E0,9.577285393E0
1.678327455E0,5.452105045E0,-3.101866484E0,-7.338558197E0,9.654090403E0
1.680730788E0,5.291700363E0,-3.109048843E0,-7.494174004E0,9.686636229E0
1.683133809E0,5.095384121E0,-3.125807524E0,-7.592332840E0,9.663184256E0
1.685536621E0,4.891885757E0,-3.135383844E0,-7.659367085E0,9.613900470E0
1.687939903E0,4.717116833E0,-3.125807524E0,-7.707249165E0,9.561566481E0
1.690343028E0,4.606987953E0,-3.137778044E0,-7.666549683E0,9.478711573E0
1.692746621E0,4.525588512E0,-3.137778044E0,-7.623455524E0,9.404449828E0
1.695150111E0,4.537559032E0,-3.200024605E0,-7.597120762E0,9.409880090E0
1.697553340E0,4.611776352E0,-3.250300646E0,-7.539661884E0,9.416975987E0
1.699957090E0,4.762604713E0,-3.293394327E0,-7.515721321E0,9.487619134E0
1.702360267E0,4.975678921E0,-3.317335367E0,-7.549238682E0,9.630841050E0
1.704762871E0,5.219877243E0,-3.353246927E0,-7.664155006E0,9.860560600E0
1.707165996E0,5.514351845E0,-3.374793768E0,-7.692884445E0,1.004877009E1
1.709569069E0,5.794461250E0,-3.420281649E0,-7.750343323E0,1.026362165E1
1.711972611E0,6.048235893E0,-3.425069809E0,-7.831742287E0,1.047131548E1
1.714375788E0,6.285251141E0,-3.422675848E0,-7.860471725E0,1.063043309E1
1.716778549E0,6.527055264E0,-3.413099289E0,-7.814983845E0,1.073897899E1
1.719182246E0,6.756888866E0,-3.413099289E0,-7.714431763E0,1.080820296E1
1.721585424E0,6.950810432E0,-3.408311129E0,-7.611485004E0,1.085656734E1
1.723988132E0,7.123185635E0,-3.384370089E0,-7.446292400E0,1.084624382E1
1.726391257E0,7.233314037E0,-3.343670607E0,-7.278705597E0,1.079261415E1
1.728794486E0,7.353019238E0,-3.346064568E0,-7.060842514E0,1.072933069E1
1.731198028E0,7.463147640E0,-3.329305887E0,-6.842979431E0,1.065876249E1
1.733600944E0,7.534970760E0,-3.317335367E0,-6.651451588E0,1.058405908E1
1.736003392E0,7.597217083E0,-3.293394327E0,-6.469500065E0,1.050802478E1
1.738406778E0,7.630734444E0,-3.269453287E0,-6.297125340E0,1.041975146E1
1.740809851E0,7.628340721E0,-3.252694845E0,-6.124749660E0,1.030942114E1
1.743212351E0,7.582852840E0,-3.264665127E0,-5.983498096E0,1.019607498E1
1.745614903E0,7.534970760E0,-3.226359606E0,-5.851822853E0,1.007119712E1
1.748017559E0,7.511029720E0,-3.211995125E0,-5.720147133E0,9.972590604E0
1.750420736E0,7.470330238E0,-3.211995125E0,-5.614806652E0,9.881740752E0
1.752823653E0,7.391324520E0,-3.200024605E0,-5.538195610E0,9.774632794E0
1.755226465E0,7.305137157E0,-3.173689365E0,-5.514254570E0,9.687328659E0
1.757629955E0,7.262043476E0,-3.185659885E0,-5.504678249E0,9.653351075E0
1.760032819E0,7.211767673E0,-3.171295404E0,-5.535801411E0,9.628696941E0
1.762435424E0,7.166279793E0,-3.178477526E0,-5.614806652E0,9.642838752E0
1.764838757E0,7.094456673E0,-3.185659885E0,-5.708176613E0,9.646917882E0
1.767242194E0,6.972357750E0,-3.185659885E0,-5.787182331E0,9.604877971E0
1.769646205E0,6.890958309E0,-3.154536486E0,-5.938010216E0,9.627895522E0
1.772049955E0,6.752100468E0,-3.159324884E0,-6.115173817E0,9.641967914E0
1.774453132E0,6.594089985E0,-3.159324884E0,-6.309095860E0,9.657538352E0
1.776856986E0,6.479173183E0,-3.185659885E0,-6.464712143E0,9.691264992E0
1.779260163E0,6.340315819E0,-3.173689365E0,-6.579628468E0,9.672818599E0
1.781663080E0,6.194275856E0,-3.188054085E0,-6.670604706E0,9.645190997E0
1.784066413E0,6.055417538E0,-3.173689365E0,-6.771156788E0,9.622315209E0
1.786469590E0,5.957259655E0,-3.144960403E0,-6.850161552E0,9.607519546E0
1.788873236E0,5.787278652E0,-3.132989883E0,-7.010566711E0,9.615418110E0
1.791276726E0,5.708273888E0,-3.099472284E0,-7.228429794E0,9.718092226E0
1.793680007E0,5.634056568E0,-3.034831762E0,-7.350528717E0,9.745925798E0
1.796084069E0,5.578992367E0,-3.001314402E0,-7.568391800E0,9.869832744E0
1.798487767E0,5.552657127E0,-2.912732601E0,-7.702461243E0,9.931964638E0
1.800890892E0,5.533504009E0,-2.857668400E0,-7.848501205E0,1.001922684E1
1.803294382E0,5.502381325E0,-2.790633678E0,-7.968205929E0,1.007750675E1
1.805697871E0,5.511957169E0,-2.733175278E0,-8.042423248E0,1.012583284E1
1.808101830E0,5.516745567E0,-2.670928717E0,-8.154945374E0,1.020154282E1
1.810505580E0,5.521533489E0,-2.625440836E0,-8.233950615E0,1.025564305E1
1.812908861E0,5.516745567E0,-2.575164795E0,-8.279438972E0,1.027691905E1
1.815312663E0,5.540686607E0,-2.488977432E0,-8.329714775E0,1.030913988E1
1.817715788E0,5.547868729E0,-2.424336672E0,-8.372808456E0,1.033248166E1
1.820118444E0,5.535898209E0,-2.395607233E0,-8.415902138E0,1.035434748E1
1.822521309E0,5.528716087E0,-2.330966473E0,-8.430267334E0,1.034743995E1
1.824924017E0,5.502381325E0,-2.299843311E0,-8.418296814E0,1.031664678E1
1.827327194E0,5.447316647E0,-2.261537790E0,-8.377596855E0,1.024558153E1
1.829729903E0,5.370705605E0,-2.251961231E0,-8.293803215E0,1.013424787E1
1.832132455E0,5.207906723E0,-2.228020430E0,-8.133399010E0,9.911536053E0
1.834535788E0,5.016379356E0,-2.213655710E0,-7.956235409E0,9.662609137E0
1.836938705E0,4.736268997E0,-2.216049910E0,-7.803013325E0,9.393089916E0
1.839341517E0,4.432218552E0,-2.204079628E0,-7.616273403E0,9.083509721E0
1.841744799E0,4.089862823E0,-2.184926510E0,-7.460657120E0,8.784206648E0
1.844148184E0,3.821723461E0,-2.175350428E0,-7.295464039E0,8.518304716E0
1.846551934E0,3.546402216E0,-2.184926510E0,-7.166182518E0,8.288850609E0
1.848954955E0,3.352480173E0,-2.182532549E0,-7.046478271E0,8.102803692E0
1.851357871E0,3.232775211E0,-2.168168068E0,-6.974655151E0,7.987340159E0
1.853761934E0,3.141799450E0,-2.180138588E0,-6.953108311E0,7.935340146E0
1.856165371E0,3.141799450E0,-2.211261749E0,-6.981837273E0,7.969104969E0
1.858567924E0,3.206440210E0,-2.232808590E0,-7.032113075E0,8.044706789E0
1.860970684E0,3.314174414E0,-2.273508310E0,-7.125483036E0,8.180776282E0
1.863373549E0,3.479367495E0,-2.321390390E0,-7.257158756E0,8.376228550E0
1.865777090E0,3.675683498E0,-2.342936993E0,-7.427139759E0,8.611759863E0
1.868180267E0,3.845664263E0,-2.357301712E0,-7.594726562E0,8.833225716E0
1.870582924E0,4.037192822E0,-2.376454592E0,-7.726402283E0,9.035693362E0
1.872986413E0,4.178444386E0,-2.409971714E0,-7.872442245E0,9.232697767E0
1.875389642E0,4.324484348E0,-2.412366152E0,-7.929900169E0,9.349010216E0
1.877792403E0,4.365184307E0,-2.431518793E0,-7.977782249E0,9.413401473E0
1.880195371E0,4.391519070E0,-2.474612474E0,-7.984964848E0,9.442923819E0
1.882598549E0,4.341243267E0,-2.484189034E0,-7.908353806E0,9.357331253E0
1.885002403E0,4.269420147E0,-2.529676914E0,-7.836530685E0,9.275690102E0
1.887405840E0,4.209567547E0,-2.532071114E0,-7.759919167E0,9.184126988E0
1.889808496E0,4.147321224E0,-2.572770596E0,-7.671337605E0,9.092240786E0
1.892211882E0,4.118592262E0,-2.572770596E0,-7.599514484E0,9.018568132E0
1.894614746E0,4.113803864E0,-2.613470316E0,-7.580362320E0,9.011964393E0
1.897017038E0,4.140138626E0,-2.599105835E0,-7.606697083E0,9.042009704E0
1.899419694E0,4.207173824E0,-2.632622957E0,-7.692884445E0,9.154861348E0
1.901822507E0,4.317302227E0,-2.620652676E0,-7.843712807E0,9.329027257E0
1.904225684E0,4.463342190E0,-2.639805317E0,-8.013693810E0,9.545118338E0
1.906628392E0,4.635717392E0,-2.632622957E0,-8.262680054E0,9.833232482E0
1.909030892E0,4.841609478E0,-2.623046875E0,-8.470966339E0,1.010340675E1
1.911434121E0,5.040319920E0,-2.625440836E0,-8.669676781E0,1.036634265E1
1.913837038E0,5.248606682E0,-2.608682156E0,-8.846839905E0,1.061224156E1
1.916239590E0,5.492804527E0,-2.587135315E0,-8.995274544E0,1.085260959E1
1.918642351E0,5.636450768E0,-2.565588236E0,-9.103009224E0,1.100984092E1
1.921045319E0,5.737002850E0,-2.534465075E0,-9.158073425E0,1.109986593E1
1.923449121E0,5.751367092E0,-2.515312433E0,-9.215531349E0,1.115038287E1
1.925852507E0,5.689120770E0,-2.445883274E0,-9.225108147E0,1.111085327E1
1.928255215E0,5.535898209E0,-2.390819073E0,-9.143708229E0,1.095306281E1
1.930658809E0,5.310853004E0,-2.333360910E0,-9.016820908E0,1.072160399E1
1.933062194E0,5.073837280E0,-2.263931751E0,-8.849234581E0,1.044883555E1
1.935465215E0,4.812880516E0,-2.201685429E0,-8.576307297E0,1.007791072E1
1.937868549E0,4.544741631E0,-2.175350428E0,-8.341685295E0,9.745282938E0
1.940271621E0,4.348425388E0,-2.122680187E0,-8.075940132E0,9.414636666E0
1.942675319E0,4.185626507E0,-2.096344948E0,-7.805407047E0,9.101566380E0
1.945078913E0,4.099439144E0,-2.084374666E0,-7.599514484E0,8.882715770E0
1.947481882E0,4.089862823E0,-2.065221786E0,-7.422351837E0,8.722581369E0
1.949885267E0,4.092256546E0,-2.067615747E0,-7.264340401E0,8.590240973E0
1.952288340E0,4.142532825E0,-2.079586267E0,-7.135059834E0,8.508486122E0
1.954691257E0,4.135350704E0,-2.091556787E0,-6.945925713E0,8.349947260E0
1.957094278E0,4.106621742E0,-2.120285988E0,-6.833403111E0,8.249566830E0
1.959497299E0,4.003674984E0,-2.182532549E0,-6.771156788E0,8.163419991E0
1.961900892E0,3.871999502E0,-2.230414629E0,-6.754397392E0,8.098704445E0
1.964304069E0,3.632589579E0,-2.316601992E0,-6.804674149E0,8.053939539E0
1.966706830E0,3.395573854E0,-2.400395632E0,-6.941137791E0,8.091428478E0
1.969110371E0,3.187287092E0,-2.448277473E0,-7.111118793E0,8.168284526E0
1.971513496E0,2.969424248E0,-2.503341913E0,-7.326587677E0,8.292351180E0
1.973916101E0,2.809019566E0,-2.548829556E0,-7.542056084E0,8.442140309E0
1.976319226E0,2.701285124E0,-2.556012154E0,-7.779072285E0,8.622302770E0
1.978722611E0,2.641432762E0,-2.558406115E0,-8.020875931E0,8.823664748E0
1.981126257E0,2.629462242E0,-2.553617716E0,-8.245921135E0,9.023871147E0
1.983529434E0,2.653403282E0,-2.558406115E0,-8.447025299E0,9.216193749E0
1.985932403E0,2.689314604E0,-2.536859035E0,-8.607430458E0,9.367813293E0
1.988336257E0,2.737196684E0,-2.496159554E0,-8.734316826E0,9.487431086E0
1.990739694E0,2.780290365E0,-2.453065872E0,-8.815716743E0,9.563702651E0
1.993142611E0,2.789866924E0,-2.441095352E0,-8.909087181E0,9.649566745E0
1.995546049E0,2.811413765E0,-2.388425112E0,-9.026396751E0,9.751126098E0
1.997949590E0,2.787472725E0,-2.366878033E0,-9.150891304E0,9.854487682E0
2.000353809E0,2.746773243E0,-2.323784351E0,-9.292141914E0,9.964368435E0
2.002757819E0,2.725226164E0,-2.287872791E0,-9.445364952E0,1.009337102E1
2.005161153E0,2.718043804E0,-2.244779110E0,-9.591404915E0,1.021870068E1
2.007565163E0,2.751561165E0,-2.230414629E0,-9.773356438E0,1.039539967E1
2.009968861E0,2.849719524E0,-2.172955990E0,-9.905032158E0,1.053338982E1
2.012371882E0,2.967030048E0,-2.132256508E0,-1.010613632E1,1.074633782E1
2.014774955E0,3.158558130E0,-2.065221786E0,-1.035272789E1,1.101910184E1
2.017178080E0,3.359662533E0,-1.998186827E0,-1.059453201E1,1.129266096E1
2.019581517E0,3.584707737E0,-1.955093026E0,-1.086745930E1,1.160922865E1
2.021984642E0,3.826511621E0,-1.895240545E0,-1.114996338E1,1.193967383E1
2.024387351E0,4.025222301E0,-1.835388064E0,-1.140852642E1,1.223623876E1
2.026790788E0,4.247873306E0,-1.763565183E0,-1.164075279E1,1.251645778E1
2.029194121E0,4.429824829E0,-1.730047822E0,-1.180355167E1,1.272557447E1
2.031597403E0,4.506436348E0,-1.670195341E0,-1.184664631E1,1.278438695E1
2.034001153E0,4.595017433E0,-1.617525101E0,-1.179397583E1,1.276042470E1
2.036404694E0,4.609382153E0,-1.588795900E0,-1.160005379E1,1.258300140E1
2.038808549E0,4.559106350E0,-1.555278540E0,-1.127206230E1,1.225821074E1
2.041211830E0,4.484889030E0,-1.521761179E0,-1.084112453E1,1.183046778E1
2.043614538E0,4.381942749E0,-1.521761179E0,-1.035991001E1,1.135098739E1
2.046017976E0,4.267025948E0,-1.507396579E0,-9.878697395E0,1.086592919E1
2.048421101E0,4.123380184E0,-1.461908698E0,-9.371148109E0,1.034204323E1
2.050824069E0,4.003674984E0,-1.435573578E0,-8.892328262E0,9.857169310E0
2.053227299E0,3.886364222E0,-1.418814898E0,-8.449419975E0,9.407951982E0
2.055630476E0,3.783417940E0,-1.435573578E0,-8.099881172E0,9.054457345E0
2.058033809E0,3.713989019E0,-1.445150137E0,-7.848501205E0,8.802337447E0
2.060436830E0,3.690047979E0,-1.440361857E0,-7.721613407E0,8.678387522E0
2.062839538E0,3.704412699E0,-1.478667498E0,-7.673731804E0,8.648427071E0
2.065242819E0,3.783417940E0,-1.493031979E0,-7.692884445E0,8.701946155E0
2.067645684E0,3.893546343E0,-1.524155378E0,-7.733583927E0,8.791534172E0
2.070048028E0,3.986916304E0,-1.576825500E0,-7.843712807E0,8.938999433E0
2.072450736E0,4.109015465E0,-1.641466022E0,-7.996934891E0,9.139441254E0
2.074853392E0,4.221538067E0,-1.698924422E0,-8.150157928E0,9.334495278E0
2.077256621E0,4.302937508E0,-1.770747423E0,-8.267468452E0,9.486930602E0
2.079659538E0,4.336454868E0,-1.821023583E0,-8.396749496E0,9.624259443E0
2.082061882E0,4.307725430E0,-1.866511464E0,-8.447025299E0,9.663984676E0
2.084465007E0,4.271814346E0,-1.904816985E0,-8.435054779E0,9.645044048E0
2.086867767E0,4.188020706E0,-1.950304866E0,-8.425478935E0,9.608949047E0
2.089270267E0,4.077892303E0,-1.981428146E0,-8.394355774E0,9.540464978E0
2.091673184E0,3.974945784E0,-2.029310226E0,-8.418296814E0,9.528169563E0
2.094076101E0,3.850452662E0,-2.055645227E0,-8.408720016E0,9.474082294E0
2.096479226E0,3.773841381E0,-2.093950987E0,-8.418296814E0,9.460139045E0
2.098881830E0,3.675683498E0,-2.137044668E0,-8.466178894E0,9.473847907E0
2.101284174E0,3.601466417E0,-2.168168068E0,-8.552366257E0,9.529663253E0
2.103687299E0,3.534431696E0,-2.187320709E0,-8.698406219E0,9.640479763E0
2.106090059E0,3.510490656E0,-2.192109108E0,-8.865993500E0,9.784412487E0
2.108492507E0,3.515278578E0,-2.194503069E0,-9.040761948E0,9.945270423E0
2.110895371E0,3.515278578E0,-2.187320709E0,-9.189196587E0,1.007883373E1
2.113298653E0,3.584707737E0,-2.122680187E0,-9.318476677E0,1.020734580E1
2.115702351E0,3.651742458E0,-2.089162588E0,-9.438181877E0,1.033339733E1
2.118105424E0,3.702018499E0,-2.022127867E0,-9.512398720E0,1.040575185E1
2.120508288E0,3.747506380E0,-2.007763147E0,-9.569858551E0,1.047172907E1
2.122911986E0,3.749900341E0,-1.947910786E0,-9.577039719E0,1.046784595E1
2.125315424E0,3.745112181E0,-1.933546185E0,-9.600980759E0,1.048538495E1
2.127718392E0,3.723565340E0,-1.909605265E0,-9.660834312E0,1.052821213E1
2.130121674E0,3.627801418E0,-1.904816985E0,-9.742233276E0,1.056884005E1
2.132524799E0,3.544008017E0,-1.892846465E0,-9.732657433E0,1.052936281E1
2.134928132E0,3.448243856E0,-1.926363826E0,-9.725474358E0,1.049695741E1
2.137331309E0,3.328539133E0,-1.938334346E0,-9.677592278E0,1.041595435E1
2.139734017E0,3.218410730E0,-1.955093026E0,-9.632103920E0,1.034204923E1
2.142137611E0,3.127434969E0,-2.002975225E0,-9.641680717E0,1.033221981E1
2.144540944E0,3.098705769E0,-2.053251028E0,-9.658438683E0,1.034907025E1
2.146943601E0,3.113070250E0,-2.079586267E0,-9.699139595E0,1.039659532E1
2.149346361E0,3.184893131E0,-2.137044668E0,-9.756598473E0,1.048340202E1
2.151748965E0,3.292627573E0,-2.172955990E0,-9.816450119E0,1.057950032E1
2.154152351E0,3.424302816E0,-2.211261749E0,-9.818843842E0,1.063133212E1
2.156555163E0,3.565554857E0,-2.232808590E0,-9.840391159E0,1.070195841E1
2.158957611E0,3.690047979E0,-2.268720150E0,-9.821238518E0,1.073407058E1
2.161360944E0,3.795388460E0,-2.297449350E0,-9.804480553E0,1.076155593E1
2.163763913E0,3.876787901E0,-2.307025671E0,-9.720685959E0,1.071651004E1
2.166166674E0,3.934246302E0,-2.330966473E0,-9.612952232E0,1.064521251E1
2.168569642E0,3.948610544E0,-2.359695911E0,-9.426212311E0,1.048871625E1
2.170972455E0,3.967763186E0,-2.374060631E0,-9.244259834E0,1.033613315E1
2.173375840E0,3.979733706E0,-2.378848553E0,-9.012033463E0,1.013478899E1
2.175778861E0,3.989310503E0,-2.402789593E0,-8.808533669E0,9.963847726E0
2.178181413E0,4.010857582E0,-2.421942234E0,-8.593066216E0,9.787418951E0
2.180584903E0,4.041980743E0,-2.429124832E0,-8.384778976E0,9.619915502E0
2.182987871E0,4.080286026E0,-2.453065872E0,-8.154945374E0,9.442955060E0
2.185390215E0,4.161685467E0,-2.455459833E0,-7.975388050E0,9.325005280E0
2.187792976E0,4.216750145E0,-2.486582994E0,-7.776678085E0,9.189167471E0
2.190195788E0,4.324484348E0,-2.496159554E0,-7.618667603E0,9.109120344E0
2.192598809E0,4.446583748E0,-2.541647434E0,-7.486992359E0,9.071225567E0
2.195001049E0,4.585441113E0,-2.556012154E0,-7.328981400E0,9.015178128E0
2.197403028E0,4.681205273E0,-2.589529276E0,-7.226035118E0,8.990824668E0
2.199806205E0,4.779363155E0,-2.625440836E0,-7.108724594E0,8.959308964E0
2.202208913E0,4.865550518E0,-2.668534517E0,-7.022537231E0,8.950457389E0
2.204611257E0,4.932585716E0,-2.704446077E0,-7.388834000E0,9.286511633E0
2.207014121E0,4.891885757E0,-2.728387117E0,-6.294731140E0,8.426047867E0
2.209416882E0,4.920615196E0,-2.699657917E0,-7.549238682E0,9.406998004E0
2.211819851E0,4.812880516E0,-2.771480799E0,-6.438376427E0,8.502800462E0
2.214222611E0,4.781757355E0,-2.771480799E0,-6.888467312E0,8.831607505E0
2.216625111E0,4.697963715E0,-2.788239479E0,-7.582756042E0,9.345765440E0
2.219028444E0,4.566287994E0,-2.812180519E0,-6.421617985E0,8.366392464E0
2.221431621E0,4.518406391E0,-2.783451319E0,-8.104669571E0,9.687583105E0
2.223834434E0,4.350819588E0,-2.845697880E0,-7.168577194E0,8.855288053E0
2.226237507E0,4.305331707E0,-2.850486040E0,-7.690490723E0,9.263088002E0
2.228640371E0,4.223932266E0,-2.828939438E0,-8.454208374E0,9.864995761E0
2.231043913E0,4.173655987E0,-2.840909719E0,-7.302646637E0,8.877996409E0
2.233447194E0,4.190414429E0,-2.804998398E0,-9.014427185E0,1.032896348E1
2.235849590E0,4.099439144E0,-2.881609440E0,-7.855683327E0,9.317769840E0
2.238252611E0,4.130562782E0,-2.867244720E0,-8.334503174E0,9.733785715E0
2.240655371E0,4.116197586E0,-2.907944679E0,-8.803746223E0,1.014421867E1
2.243057819E0,4.156897545E0,-2.960614681E0,-7.506144524E0,9.076741822E0
2.245460371E0,4.307725430E0,-2.948644161E0,-9.124555588E0,1.051230305E1
2.247863236E0,4.338849068E0,-3.044408083E0,-7.690490723E0,9.340111314E0
2.250266830E0,4.535165310E0,-3.053984642E0,-8.274650574E0,9.917882269E0
2.252669642E0,4.657264233E0,-3.097078323E0,-8.617007256E0,1.027301408E1
2.255072038E0,4.824851036E0,-3.154536486E0,-7.276310921E0,9.283048453E0
2.257475319E0,5.061866760E0,-3.123413324E0,-8.882752419E0,1.069025240E1
2.259878132E0,5.181571484E0,-3.197630405E0,-7.223640919E0,9.447460578E0
2.262280528E0,5.432951927E0,-3.190448046E0,-7.841318607E0,1.005893647E1
2.264683132E0,5.600539207E0,-3.235936165E0,-7.941870689E0,1.024258914E1
2.267085788E0,5.746579170E0,-3.307759047E0,-6.589205265E0,9.347837616E0
2.269489069E0,5.993171215E0,-3.331700087E0,-8.111851692E0,1.062169782E1
2.271891986E0,6.098511696E0,-3.451404810E0,-6.328248024E0,9.441968180E0
2.274294226E0,6.333133221E0,-3.499286890E0,-7.156606674E0,1.017696439E1
2.276697455E0,6.452837944E0,-3.571109772E0,-7.166182518E0,1.028329298E1
2.279100580E0,6.582119465E0,-3.645326853E0,-5.995468616E0,9.620724944E0
2.281503288E0,6.759282589E0,-3.654903412E0,-7.635426044E0,1.083263361E1
2.283906257E0,6.819135189E0,-3.765031815E0,-5.918857574E0,9.783094821E0
2.286309278E0,6.955599308E0,-3.757849693E0,-6.945925713E0,1.052367237E1
2.288712871E0,6.986721992E0,-3.824884415E0,-6.821432590E0,1.048694272E1
2.291115996E0,7.022633553E0,-3.884736776E0,-5.827881813E0,9.918304707E0
2.293518549E0,7.056151390E0,-3.879948616E0,-7.460657120E0,1.097746229E1
2.295922038E0,6.986721992E0,-3.968530416E0,-5.679447651E0,9.839697327E0
2.298325163E0,7.046574593E0,-3.954165459E0,-6.902832031E0,1.062726343E1
2.300727663E0,6.960387230E0,-4.006835938E0,-6.644268990E0,1.042343681E1
2.303130476E0,6.957993031E0,-3.990077019E0,-5.794363976E0,9.894899469E0
2.305533288E0,6.917293072E0,-4.033170700E0,-7.633032322E0,1.106248579E1
2.307936465E0,6.886170387E0,-4.002047539E0,-6.198966980E0,1.009271612E1
2.310339278E0,6.859835148E0,-3.982894897E0,-6.505411625E0,1.025871193E1
2.312741674E0,6.785618305E0,-3.985288858E0,-6.783127308E0,1.038931947E1
2.315144903E0,6.740129948E0,-3.961347818E0,-6.787915230E0,1.035361876E1
2.317547871E0,6.692248344E0,-3.949377298E0,-6.945925713E0,1.042255501E1
2.319950580E0,6.572543144E0,-3.927830458E0,-6.965078831E0,1.035077285E1
2.322353601E0,6.500720024E0,-3.899101257E0,-7.094359398E0,1.038230643E1
2.324756465E0,6.407350063E0,-3.872766256E0,-7.228429794E0,1.040685594E1
2.327159746E0,6.323556423E0,-3.829672575E0,-7.297858238E0,1.038809380E1
2.329562767E0,6.227793217E0,-3.788972855E0,-7.386440277E0,1.037792000E1
2.331965267E0,6.148787498E0,-3.753061295E0,-7.427139759E0,1.034676093E1
2.334368340E0,6.072176456E0,-3.733908653E0,-7.537268162E0,1.037418971E1
2.336771257E0,6.021900654E0,-3.688420534E0,-7.604302883E0,1.037753130E1
2.339173861E0,5.964442253E0,-3.645326853E0,-7.695278645E0,1.039616721E1
2.341577038E0,5.914165974E0,-3.630962372E0,-7.735978127E0,1.039262260E1
2.343980476E0,5.818402290E0,-3.604627371E0,-7.807801247E0,1.038310666E1
2.346384278E0,5.775308132E0,-3.573503733E0,-7.913141727E0,1.042793963E1
2.348787507E0,5.727426052E0,-3.556745291E0,-7.968205929E0,1.043772734E1
2.351190371E0,5.674756050E0,-3.528016090E0,-8.059181213E0,1.046900929E1
2.353593861E0,5.619691849E0,-3.518439531E0,-8.145369530E0,1.050273288E1
2.355996726E0,5.555051327E0,-3.487316370E0,-8.267468452E0,1.055324620E1
2.358398965E0,5.483228207E0,-3.470557690E0,-8.372808456E0,1.059313380E1
2.360801674E0,5.449710846E0,-3.434646368E0,-8.454208374E0,1.062872444E1
2.363204330E0,5.397040844E0,-3.429857969E0,-8.602642059E0,1.071902169E1
2.365607299E0,5.330005646E0,-3.405917168E0,-8.657706261E0,1.072217840E1
2.368010111E0,5.248606682E0,-3.403522730E0,-8.755864143E0,1.076090126E1
2.370412819E0,5.193542004E0,-3.410705328E0,-8.827687263E0,1.079508461E1
2.372816413E0,5.121719360E0,-3.425069809E0,-8.834870338E0,1.077116736E1
2.375219590E0,5.071443081E0,-3.453799009E0,-8.856415749E0,1.077424533E1
2.377622507E0,5.004408836E0,-3.463375330E0,-8.856415749E0,1.074593767E1
2.380025840E0,4.932585716E0,-3.480134010E0,-8.820505142E0,1.068845384E1
2.382429226E0,4.803304195E0,-3.504075050E0,-8.808533669E0,1.062734861E1
2.384833236E0,4.681205273E0,-3.487316370E0,-8.734316826E0,1.050539617E1
2.387236674E0,4.520800591E0,-3.496892929E0,-8.660099983E0,1.037608933E1
2.389639434E0,4.322090149E0,-3.480134010E0,-8.561942101E0,1.020287452E1
2.392042976E0,4.144927025E0,-3.444222689E0,-8.487725258E0,1.005408226E1
2.394445996E0,3.970157862E0,-3.396340609E0,-8.375202179E0,9.871235714E0
2.396848757E0,3.792994261E0,-3.365217209E0,-8.262680054E0,9.694502256E0
2.399251934E0,3.668501139E0,-3.326911926E0,-8.164522171E0,9.549118590E0
2.401655111E0,3.565554857E0,-3.271847486E0,-8.083122253E0,9.420988949E0
2.404058809E0,3.520066977E0,-3.240724325E0,-7.996934891E0,9.319019976E0
2.406461986E0,3.476973057E0,-3.195236206E0,-7.872442245E0,9.180099289E0
2.408864642E0,3.438667774E0,-3.159324884E0,-7.800619125E0,9.091503095E0
2.411268080E0,3.469790936E0,-3.099472284E0,-7.757524967E0,9.045737736E0
2.413671309E0,3.476973057E0,-3.097078323E0,-7.824560165E0,9.105217052E0
2.416074121E0,3.520066977E0,-3.053984642E0,-7.848501205E0,9.127796278E0
2.418477194E0,3.572737217E0,-3.027649403E0,-7.922718048E0,9.203291444E0
2.420880319E0,3.651742458E0,-3.001314402E0,-8.047210693E0,9.332776171E0
2.423283705E0,3.749900341E0,-2.967797041E0,-8.159733772E0,9.457844737E0
2.425686621E0,3.845664263E0,-2.931885481E0,-8.298591614E0,9.604775316E0
2.428089226E0,3.912698984E0,-2.919914961E0,-8.413508415E0,9.727396392E0
2.430492819E0,4.030010223E0,-2.900762081E0,-8.494908333E0,9.839658055E0
2.432895892E0,4.109015465E0,-2.907944679E0,-8.561942101E0,9.932119758E0
2.435298340E0,4.192809105E0,-2.915126801E0,-8.614612579E0,1.001444768E1
2.437701517E0,4.274208069E0,-2.934279680E0,-8.590671539E0,1.003386712E1
2.440104694E0,4.362790108E0,-2.951038361E0,-8.578701019E0,1.006661195E1
2.442507871E0,4.439401150E0,-2.965402842E0,-8.523636818E0,1.005754847E1
2.444910580E0,4.537559032E0,-3.008496523E0,-8.470966339E0,1.006964567E1
2.447313028E0,4.621352673E0,-3.044408083E0,-8.406326294E0,1.006437494E1
2.449716465E0,4.736268997E0,-3.044408083E0,-8.379991531E0,1.009578737E1
2.452119590E0,4.824851036E0,-3.087501764E0,-8.324926376E0,1.010525872E1
2.454522038E0,4.911038876E0,-3.111442804E0,-8.324926376E0,1.015400307E1
2.456925111E0,5.016379356E0,-3.147354364E0,-8.291409492E0,1.018908105E1
2.459328444E0,5.069049358E0,-3.200024605E0,-8.303380013E0,1.024116881E1
2.461731882E0,5.124113083E0,-3.231147766E0,-8.320138931E0,1.029182018E1
2.464135007E0,5.157630444E0,-3.235936165E0,-8.370414734E0,1.035066556E1
2.466537715E0,5.181571484E0,-3.223965645E0,-8.423084259E0,1.040148960E1
2.468940944E0,5.191148281E0,-3.240724325E0,-8.478149414E0,1.045606676E1
2.471343965E0,5.181571484E0,-3.204812765E0,-8.545184135E0,1.049474534E1
2.473746934E0,5.191148281E0,-3.168901443E0,-8.588276863E0,1.052370925E1
2.476150267E0,5.152842522E0,-3.140172005E0,-8.619400978E0,1.052171752E1
2.478553496E0,5.126507759E0,-3.044408083E0,-8.645735741E0,1.050229731E1
2.480957142E0,5.081019878E0,-2.982161522E0,-8.626583099E0,1.044643414E1
2.483360059E0,5.018773079E0,-2.910338640E0,-8.569125175E0,1.034833612E1
2.485762611E0,4.927797318E0,-2.843303919E0,-8.466178894E0,1.020018376E1
2.488165892E0,4.781757355E0,-2.769086838E0,-8.286621094E0,9.959976630E0
2.490568444E0,4.618958473E0,-2.685293436E0,-8.078334808E0,9.685301828E0
2.492970736E0,4.437006950E0,-2.639805317E0,-7.860471725E0,9.404393576E0
2.495373757E0,4.240691185E0,-2.579952955E0,-7.625849724E0,9.099077040E0
2.497776830E0,4.032403946E0,-2.541647434E0,-7.436716080E0,8.833176060E0
2.500180163E0,3.883970022E0,-2.520100594E0,-7.285887718E0,8.632513538E0
2.502583340E0,3.749900341E0,-2.515312433E0,-7.202094078E0,8.500512238E0
2.504986101E0,3.670895100E0,-2.500947475E0,-7.163788795E0,8.429120892E0
2.507389382E0,3.651742458E0,-2.505735874E0,-7.190123558E0,8.444632143E0
2.509792299E0,3.687654018E0,-2.512917995E0,-7.283493519E0,8.541828074E0
2.512194955E0,3.773841381E0,-2.505735874E0,-7.463051319E0,8.730276401E0
2.514598028E0,3.867211580E0,-2.524888515E0,-7.645002842E0,8.931766672E0
2.517000736E0,3.962975264E0,-2.520100594E0,-7.826953888E0,9.127830361E0
2.519403861E0,4.034798622E0,-2.524888515E0,-8.006511688E0,9.314445306E0
2.521806986E0,4.087468624E0,-2.510524035E0,-8.181281090E0,9.483854224E0
2.524209694E0,4.058739662E0,-2.503341913E0,-8.308168411E0,9.579444176E0
2.526613028E0,3.972551584E0,-2.508130074E0,-8.368021011E0,9.596648280E0
2.529016309E0,3.826511621E0,-2.472218513E0,-8.415902138E0,9.569820498E0
2.531419538E0,3.611042738E0,-2.460247993E0,-8.370414734E0,9.442260993E0
2.533822976E0,3.395573854E0,-2.438701153E0,-8.305773735E0,9.298551632E0
2.536226257E0,3.163346052E0,-2.400395632E0,-8.166915894E0,9.081143796E0
2.538629538E0,2.923936367E0,-2.359695911E0,-8.049604416E0,8.883338332E0
2.541032246E0,2.727620363E0,-2.350119591E0,-7.937082767E0,8.715518217E0
2.543434851E0,2.569609642E0,-2.333360910E0,-7.814983845E0,8.551107492E0
2.545838132E0,2.497786999E0,-2.271114349E0,-7.733583927E0,8.438318591E0
2.548240944E0,2.481028080E0,-2.235202789E0,-7.678520203E0,8.373249330E0
2.550643601E0,2.528910160E0,-2.206473589E0,-7.683308125E0,8.384338736E0
2.553046934E0,2.641432762E0,-2.160985470E0,-7.752737045E0,8.470652686E0
2.555450424E0,2.823384285E0,-2.134650469E0,-7.829348087E0,8.592259477E0
2.557853913E0,3.062794209E0,-2.125074148E0,-7.977782249E0,8.805774135E0
2.560257038E0,3.311780453E0,-2.139438868E0,-8.145369530E0,9.049427231E0
2.562659590E0,3.575131178E0,-2.127468348E0,-8.358444214E0,9.336555799E0
2.565062819E0,3.797782421E0,-2.165773869E0,-8.535607338E0,9.590115765E0
2.567466049E0,4.015645504E0,-2.163379908E0,-8.676858902E0,9.802729306E0
2.569869121E0,4.152109146E0,-2.175350428E0,-8.794170380E0,9.965419836E0
2.572272507E0,4.243085384E0,-2.194503069E0,-8.846839905E0,1.005416300E1
2.574675476E0,4.262237549E0,-2.230414629E0,-8.863598824E0,1.008487989E1
2.577078965E0,4.240691185E0,-2.259143829E0,-8.870780945E0,1.008850569E1
2.579481986E0,4.128168106E0,-2.251961231E0,-8.834870338E0,1.000839823E1
2.581884330E0,4.008463383E0,-2.266326189E0,-8.789381981E0,9.922562607E0
2.584287663E0,3.917487383E0,-2.318996191E0,-8.717558861E0,9.834647082E0
2.586690632E0,3.771447420E0,-2.309419870E0,-8.636158943E0,9.702601562E0
2.589093288E0,3.666106939E0,-2.330966473E0,-8.581094742E0,9.618156359E0
2.591496205E0,3.577525377E0,-2.321390390E0,-8.552366257E0,9.556699732E0
2.593899069E0,3.505702496E0,-2.352513552E0,-8.533212662E0,9.520503575E0
2.596302403E0,3.455426455E0,-2.354907513E0,-8.547577858E0,9.515600276E0
2.598705163E0,3.441061735E0,-2.374060631E0,-8.597853661E0,9.560342950E0
2.601107559E0,3.407544374E0,-2.398001671E0,-8.669676781E0,9.618995070E0
2.603510684E0,3.443455935E0,-2.412366152E0,-8.736711502E0,9.695722103E0
2.605913184E0,3.500914097E0,-2.443489313E0,-8.810929298E0,9.790787233E0
2.608315476E0,3.582313776E0,-2.465036392E0,-8.940210342E0,9.941666730E0
2.610718236E0,3.704412699E0,-2.500947475E0,-9.035974503E0,1.008098442E1
2.613121413E0,3.836087942E0,-2.515312433E0,-9.170042992E0,1.025339240E1
2.615525111E0,3.986916304E0,-2.524888515E0,-9.354389191E0,1.047736421E1
2.617928392E0,4.120985985E0,-2.517706394E0,-9.533946037E0,1.068725868E1
2.620331465E0,4.257449627E0,-2.527282715E0,-9.730261803E0,1.091746445E1
2.622735111E0,4.422642708E0,-2.541647434E0,-9.917001724E0,1.115198025E1
2.625138392E0,4.544741631E0,-2.534465075E0,-1.006304169E1,1.132885686E1
2.627541361E0,4.666840553E0,-2.563194275E0,-1.022584152E1,1.152897222E1
2.629944330E0,4.803304195E0,-2.584741116E0,-1.034554577E1,1.169542368E1
2.632347142E0,4.906250000E0,-2.613470316E0,-1.041258144E1,1.180353203E1
2.634750371E0,4.992438316E0,-2.644593477E0,-1.045806789E1,1.188652595E1
2.637153236E0,5.083413601E0,-2.678111076E0,-1.044849205E1,1.192410831E1
2.639555788E0,5.116930962E0,-2.745145798E0,-1.037906265E1,1.189301263E1
2.641959121E0,5.136083603E0,-2.804998398E0,-1.019471836E1,1.175498419E1
2.644362194E0,5.116930962E0,-2.879215240E0,-9.979249001E0,1.157835366E1
2.646764903E0,5.045108318E0,-2.924703121E0,-9.713503838E0,1.132957030E1
2.649167871E0,4.958920479E0,-3.020467043E0,-9.462122917E0,1.110161626E1
2.651570840E0,4.815274715E0,-3.077925682E0,-9.215531349E0,1.084373161E1
2.653974330E0,4.664446831E0,-3.180871725E0,-8.968938828E0,1.059796551E1
2.656377507E0,4.480100632E0,-3.226359606E0,-8.724740982E0,1.032481492E1
2.658780163E0,4.305331707E0,-3.267059326E0,-8.535607338E0,1.010277934E1
2.661183392E0,4.132956505E0,-3.288606167E0,-8.387172699E0,9.911656061E0
2.663586309E0,4.049163342E0,-3.291000366E0,-8.308168411E0,9.810813907E0
2.665988913E0,3.917487383E0,-3.288606167E0,-8.229162216E0,9.689207847E0
2.668391934E0,3.826511621E0,-3.288606167E0,-8.233950615E0,9.656866181E0
2.670794955E0,3.788206100E0,-3.245512247E0,-8.317744255E0,9.698903273E0
2.673198340E0,3.728353739E0,-3.235936165E0,-8.430267334E0,9.769406931E0
2.675601205E0,3.730747700E0,-3.226359606E0,-8.557153702E0,9.876879780E0
2.678003757E0,3.721171141E0,-3.243118286E0,-8.734316826E0,1.003260790E1
2.680407090E0,3.740324259E0,-3.295788527E0,-8.877963066E0,1.018186995E1
2.682809799E0,3.764265060E0,-3.334094048E0,-9.021609306E0,1.032837398E1
2.685212038E0,3.800176382E0,-3.398734808E0,-9.196377754E0,1.051504173E1
2.687614851E0,3.855241060E0,-3.441828489E0,-9.390299797E0,1.071852589E1
2.690017663E0,3.874393702E0,-3.528016090E0,-9.529158592E0,1.087486494E1
2.692421101E0,3.931852102E0,-3.554351091E0,-9.701533318E0,1.105498174E1
2.694824069E0,3.895940542E0,-3.595050812E0,-9.854756355E0,1.119012805E1
2.697226621E0,3.888757944E0,-3.585474253E0,-9.912214279E0,1.123521499E1
2.699630111E0,3.860028982E0,-3.604627371E0,-9.921790123E0,1.123988797E1
2.702033288E0,3.838482141E0,-3.583080292E0,-9.955307961E0,1.125524616E1
2.704435944E0,3.833693743E0,-3.630962372E0,-9.969672203E0,1.128164258E1
2.706838809E0,3.881575823E0,-3.671662092E0,-9.972065926E0,1.131325913E1
2.709241778E0,3.924669504E0,-3.702785254E0,-9.938549042E0,1.130877564E1
2.711645371E0,3.984522104E0,-3.796154976E0,-9.924183846E0,1.134797929E1
2.714048340E0,4.049163342E0,-3.841643095E0,-9.948124886E0,1.140697743E1
2.716450944E0,4.159291744E0,-3.899101257E0,-9.967278481E0,1.148256673E1
2.718854799E0,4.262237549E0,-3.930224657E0,-9.967278481E0,1.153082716E1
2.721258028E0,4.396306992E0,-3.949377298E0,-9.948124886E0,1.157109696E1
2.723660476E0,4.530376434E0,-3.951771498E0,-9.948124886E0,1.162351054E1
2.726063444E0,4.645293713E0,-3.903889656E0,-9.900242805E0,1.161180071E1
2.728466465E0,4.738663673E0,-3.911071777E0,-9.818843842E0,1.158279371E1
2.730869955E0,4.798516273E0,-3.875160217E0,-9.708716393E0,1.150225192E1
2.733272924E0,4.800909996E0,-3.810519934E0,-9.529158592E0,1.133021017E1
2.735675528E0,4.748239517E0,-3.767425776E0,-9.359177589E0,1.115049239E1
2.738079017E0,4.662052155E0,-3.741090775E0,-9.196377754E0,1.096831137E1
2.740482299E0,4.544741631E0,-3.724332094E0,-9.035974503E0,1.077841181E1
2.742885111E0,4.374760628E0,-3.712361574E0,-8.863598824E0,1.055857676E1
2.745288340E0,4.255055428E0,-3.683632612E0,-8.676858902E0,1.034226892E1
2.747691569E0,4.109015465E0,-3.671662092E0,-8.521243095E0,1.014774332E1
2.750095007E0,4.003674984E0,-3.666873932E0,-8.394355774E0,9.997028892E0
2.752498028E0,3.886364222E0,-3.695603132E0,-8.312955856E0,9.892752117E0
2.754900528E0,3.814541101E0,-3.724332094E0,-8.274650574E0,9.843333555E0
2.757304121E0,3.769053221E0,-3.731514692E0,-8.255497932E0,9.812400837E0
2.759707351E0,3.778629780E0,-3.743484735E0,-8.229162216E0,9.798511711E0
2.762110059E0,3.816935062E0,-3.743484735E0,-8.200433731E0,9.789268850E0
2.764513288E0,3.869605303E0,-3.743484735E0,-8.214797974E0,9.821936108E0
2.766916569E0,3.958187342E0,-3.729120255E0,-8.236345291E0,9.869699522E0
2.769320215E0,4.027616024E0,-3.719544172E0,-8.320138931E0,9.964005797E0
2.771723236E0,4.104227066E0,-3.714755774E0,-8.399143219E0,1.005930898E1
2.774125892E0,4.214355469E0,-3.717149734E0,-8.478149414E0,1.017138199E1
2.776529330E0,4.274208069E0,-3.702785254E0,-8.516453743E0,1.022298673E1
2.778932351E0,4.360395432E0,-3.693208933E0,-8.564335823E0,1.029566358E1
2.781335111E0,4.401095867E0,-3.697997093E0,-8.583489418E0,1.033059136E1
2.783738496E0,4.417854309E0,-3.690814734E0,-8.633765221E0,1.037696738E1
2.786142090E0,4.441795349E0,-3.690814734E0,-8.710375786E0,1.045094760E1
2.788545892E0,4.475312710E0,-3.683632612E0,-8.782198906E0,1.052257529E1
2.790948861E0,4.508830070E0,-3.686026573E0,-8.875569344E0,1.061565220E1
2.793351361E0,4.547135830E0,-3.647721052E0,-8.916269302E0,1.065280111E1
2.795754642E0,4.618958473E0,-3.638144493E0,-8.995274544E0,1.074643368E1
2.798157715E0,4.685993195E0,-3.621385813E0,-9.014427185E0,1.078577141E1
2.800560476E0,4.721904755E0,-3.578292131E0,-9.000061989E0,1.077504872E1
2.802963392E0,4.800909996E0,-3.549562931E0,-8.952179909E0,1.076056034E1
2.805365892E0,4.834427834E0,-3.528016090E0,-8.870780945E0,1.070090391E1
2.807768757E0,4.879915237E0,-3.518439531E0,-8.729529381E0,1.060177686E1
2.810171517E0,4.882309437E0,-3.508863211E0,-8.528425217E0,1.043470666E1
2.812573965E0,4.887097836E0,-3.496892929E0,-8.363231659E0,1.029833138E1
2.814977299E0,4.863156796E0,-3.518439531E0,-8.178886414E0,1.014514138E1
2.817380371E0,4.863156796E0,-3.499286890E0,-7.941870689E0,9.948296980E0
2.819783288E0,4.836821556E0,-3.504075050E0,-7.726402283E0,9.765791159E0
2.822186413E0,4.832033157E0,-3.504075050E0,-7.494174004E0,9.580695715E0
2.824589434E0,4.865550518E0,-3.528016090E0,-7.266735077E0,9.430053979E0
2.826993132E0,4.934979439E0,-3.561533213E0,-7.065630436E0,9.325324356E0
2.829396517E0,4.987649441E0,-3.587868690E0,-6.905226231E0,9.242921507E0
2.831799538E0,5.097778320E0,-3.587868690E0,-6.780733109E0,9.210781022E0
2.834203601E0,5.215089321E0,-3.616597891E0,-6.699333668E0,9.228109694E0
2.836607142E0,5.373099804E0,-3.630962372E0,-6.670604706E0,9.303282022E0
2.839010163E0,5.564627647E0,-3.664479494E0,-6.684968948E0,9.438342050E0
2.841413549E0,5.737002850E0,-3.666873932E0,-6.696939468E0,9.550296559E0
2.843817090E0,5.947683334E0,-3.657297373E0,-6.740033150E0,9.704576651E0
2.846221153E0,6.098511696E0,-3.683632612E0,-6.787915230E0,9.840568444E0
2.848624694E0,6.249339581E0,-3.719544172E0,-6.811856270E0,9.964468871E0
2.851027767E0,6.381015301E0,-3.697997093E0,-6.821432590E0,1.004611773E1
2.853431674E0,6.486355782E0,-3.726726294E0,-6.847767830E0,1.014165787E1
2.855835215E0,6.548602104E0,-3.741090775E0,-6.833403111E0,1.017719744E1
2.858238028E0,6.603666782E0,-3.721938133E0,-6.814249992E0,1.019290152E1
2.860641153E0,6.649154186E0,-3.738696814E0,-6.790308952E0,1.021260990E1
2.863044330E0,6.658730507E0,-3.750667334E0,-6.763974190E0,1.020576035E1
2.865447819E0,6.644366264E0,-3.779396296E0,-6.754397392E0,1.020065309E1
2.867851049E0,6.632395744E0,-3.793761015E0,-6.747215748E0,1.019343987E1
2.870254069E0,6.675488949E0,-3.781790495E0,-6.756792068E0,1.022342071E1
2.872657976E0,6.680277824E0,-3.767425776E0,-6.735245228E0,1.020701411E1
2.875061413E0,6.716189384E0,-3.743484735E0,-6.756792068E0,1.023597171E1
2.877464226E0,6.728159428E0,-3.733908653E0,-6.790308952E0,1.026248015E1
2.879867611E0,6.747312069E0,-3.707573652E0,-6.828615189E0,1.029088470E1
2.882271049E0,6.759282589E0,-3.690814734E0,-6.869314671E0,1.031976252E1
2.884674851E0,6.752100468E0,-3.659691572E0,-6.881285191E0,1.031194885E1
2.887077976E0,6.742524147E0,-3.621385813E0,-6.938743591E0,1.033064517E1
2.889480580E0,6.701824665E0,-3.599838972E0,-6.948319435E0,1.030303050E1
2.891884174E0,6.663518429E0,-3.573503733E0,-6.974655151E0,1.028679840E1
2.894287246E0,6.615637302E0,-3.568715811E0,-6.960289955E0,1.024441437E1
2.896689851E0,6.543814182E0,-3.530410051E0,-6.974655151E0,1.019466104E1
2.899093028E0,6.498326302E0,-3.496892929E0,-6.957896233E0,1.014242697E1
2.901496465E0,6.450444221E0,-3.465769529E0,-6.974655151E0,1.011264573E1
2.903900111E0,6.409744740E0,-3.434646368E0,-6.967472553E0,1.007111201E1
2.906303236E0,6.395379543E0,-3.401128769E0,-6.993807793E0,1.006885812E1
2.908705944E0,6.373833179E0,-3.379581928E0,-7.015354633E0,1.006292820E1
2.911109538E0,6.376227379E0,-3.341276407E0,-7.017748833E0,1.005331797E1
2.913512507E0,6.366650581E0,-3.298182487E0,-7.032113075E0,1.004305042E1
2.915915215E0,6.333133221E0,-3.271847486E0,-7.068024635E0,1.003845280E1
2.918318601E0,6.321162701E0,-3.276635647E0,-7.058448792E0,1.002572383E1
2.920721882E0,6.306797981E0,-3.274241686E0,-7.065630436E0,1.002095269E1
2.923125111E0,6.254127979E0,-3.252694845E0,-7.096754074E0,1.000290253E1
2.925527871E0,6.208640099E0,-3.264665127E0,-7.091965675E0,9.975030196E0
2.927930424E0,6.143999577E0,-3.235936165E0,-7.077600956E0,9.915263433E0
2.930333965E0,6.064994335E0,-3.233541727E0,-7.103936195E0,9.884627350E0
2.932737246E0,5.990777016E0,-3.190448046E0,-7.089571476E0,9.814804720E0
2.935140111E0,5.868678093E0,-3.154536486E0,-7.132665634E0,9.760502141E0
2.937543132E0,5.722638130E0,-3.121019363E0,-7.075207233E0,9.620182245E0
2.939946101E0,5.543080807E0,-3.063560724E0,-7.029719353E0,9.461929154E0
2.942349955E0,5.370705605E0,-2.991737843E0,-6.960289955E0,9.286582271E0
2.944753340E0,5.176783562E0,-2.927097321E0,-6.874102592E0,9.089569474E0
2.947156049E0,4.949344158E0,-2.862456560E0,-6.730456829E0,8.831121915E0
2.949559538E0,4.745845795E0,-2.828939438E0,-6.601175785E0,8.608221210E0
2.951962663E0,4.573470592E0,-2.793027878E0,-6.479076385E0,8.408095432E0
2.954365528E0,4.427430630E0,-2.757116318E0,-6.385706425E0,8.245063912E0
2.956768653E0,4.310119629E0,-2.759510279E0,-6.301913261E0,8.118259601E0
2.959171517E0,4.238296509E0,-2.733175278E0,-6.234878540E0,8.019171703E0
2.961574851E0,4.164079666E0,-2.749933958E0,-6.232484341E0,7.984081494E0
2.963977871E0,4.118592262E0,-2.740357637E0,-6.285154819E0,7.998470686E0
2.966380632E0,4.104227066E0,-2.776268959E0,-6.371342182E0,8.071328908E0
2.968784174E0,4.113803864E0,-2.795421839E0,-6.498229027E0,8.183199006E0
2.971187246E0,4.130562782E0,-2.807392359E0,-6.689757347E0,8.348404286E0
2.973590319E0,4.130562782E0,-2.809786320E0,-6.926773071E0,8.540294681E0
2.975993757E0,4.149714947E0,-2.836121559E0,-7.168577194E0,8.755125278E0
2.978397194E0,4.202384949E0,-2.824151039E0,-7.360104561E0,8.933476787E0
2.980801361E0,4.267025948E0,-2.845697880E0,-7.580362320E0,9.152453210E0
2.983205163E0,4.314908028E0,-2.828939438E0,-7.781466007E0,9.336623739E0
2.985608444E0,4.369972229E0,-2.848092079E0,-7.939476490E0,9.499661716E0
2.988012455E0,4.417854309E0,-2.872033119E0,-8.011299133E0,9.588895908E0
2.990415996E0,4.458554268E0,-2.879215240E0,-8.083122253E0,9.669821711E0
2.992819017E0,4.489676952E0,-2.912732601E0,-8.095092773E0,9.704212351E0
2.995222351E0,4.532771111E0,-2.912732601E0,-8.049604416E0,9.686390267E0
2.997625632E0,4.511224270E0,-2.919914961E0,-7.999329090E0,9.636716956E0
3.000029278E0,4.504041672E0,-2.965402842E0,-7.901171207E0,9.566008146E0
3.002432455E0,4.463342190E0,-2.984555483E0,-7.826953888E0,9.491585858E0
3.004835319E0,4.432218552E0,-3.008496523E0,-7.735978127E0,9.409621150E0
3.007239278E0,4.425036430E0,-3.063560724E0,-7.678520203E0,9.376887769E0
3.009642819E0,4.434613228E0,-3.080319643E0,-7.630638123E0,9.347769881E0
3.012045840E0,4.432218552E0,-3.125807524E0,-7.577967644E0,9.318842609E0
3.014449174E0,4.523194790E0,-3.176083565E0,-7.601908684E0,9.398713399E0
3.016852351E0,4.585441113E0,-3.195236206E0,-7.676125526E0,9.495193927E0
3.019255684E0,4.650081635E0,-3.231147766E0,-7.774283886E0,9.617851373E0
3.021658653E0,4.762604713E0,-3.233541727E0,-7.889200687E0,9.766149868E0
3.024061569E0,4.887097836E0,-3.245512247E0,-8.066364288E0,9.974131934E0
3.026465059E0,4.990043640E0,-3.238330126E0,-8.245921135E0,1.016772014E1
3.028867871E0,5.083413601E0,-3.197630405E0,-8.418296814E0,1.034087304E1
3.031270267E0,5.171995163E0,-3.166507006E0,-8.619400978E0,1.053899302E1
3.033672871E0,5.272547722E0,-3.125807524E0,-8.748682022E0,1.068222211E1
3.036075528E0,5.303670883E0,-3.058772802E0,-8.822898865E0,1.073911357E1
3.038478757E0,5.358735085E0,-2.970191002E0,-8.894721985E0,1.080065533E1
3.040881517E0,5.404222965E0,-2.900762081E0,-8.940210342E0,1.084192822E1
3.043283965E0,5.399434566E0,-2.814574480E0,-8.858811378E0,1.074961684E1
3.045687455E0,5.356341362E0,-2.716416597E0,-8.767834663E0,1.062752260E1
3.048090476E0,5.248606682E0,-2.649381876E0,-8.583489418E0,1.040400822E1
3.050492976E0,5.061866760E0,-2.560800076E0,-8.403932571E0,1.013934292E1
3.052895892E0,4.879915237E0,-2.462642193E0,-8.174098969E0,9.833314459E0
3.055298913E0,4.659657955E0,-2.400395632E0,-7.956235409E0,9.527643640E0
3.057702559E0,4.453765869E0,-2.335754871E0,-7.740766525E0,9.230993860E0
3.060105632E0,4.245479107E0,-2.283084869E0,-7.484598160E0,8.902571481E0
3.062508496E0,4.073104382E0,-2.268720150E0,-7.328981400E0,8.686267252E0
3.064912194E0,3.943822622E0,-2.225626230E0,-7.194911957E0,8.501406181E0
3.067315424E0,3.874393702E0,-2.225626230E0,-7.082389355E0,8.374041894E0
3.069718392E0,3.895940542E0,-2.232808590E0,-7.063236713E0,8.369772982E0
3.072121621E0,3.974945784E0,-2.223232269E0,-7.068024635E0,8.408324919E0
3.074524694E0,4.094651222E0,-2.273508310E0,-7.159000397E0,8.554898909E0
3.076928340E0,4.240691185E0,-2.295055389E0,-7.340951920E0,8.782955997E0
3.079331569E0,4.386731148E0,-2.316601992E0,-7.530085564E0,9.017330178E0
3.081734330E0,4.513617992E0,-2.354907513E0,-7.814983845E0,9.326966777E0
3.084138080E0,4.609382153E0,-2.386031151E0,-8.078334808E0,9.602033210E0
3.086541413E0,4.674022675E0,-2.421942234E0,-8.382385254E0,9.898316761E0
3.088944434E0,4.700358391E0,-2.457853794E0,-8.602642059E0,1.010642690E1
3.091347924E0,4.697963715E0,-2.481794834E0,-8.803746223E0,1.028280683E1
3.093751049E0,4.681205273E0,-2.515312433E0,-9.002455711E0,1.045393171E1
3.096154746E0,4.595017433E0,-2.505735874E0,-9.124555588E0,1.051904996E1
3.098557976E0,4.508830070E0,-2.503341913E0,-9.150891304E0,1.050405069E1
3.100960476E0,4.350819588E0,-2.524888515E0,-9.122160912E0,1.041722193E1
3.103363965E0,4.156897545E0,-2.524888515E0,-8.990486145E0,1.022172688E1
3.105767038E0,3.927063704E0,-2.500947475E0,-8.808533669E0,9.963274211E0
3.108169799E0,3.666106939E0,-2.496159554E0,-8.585883141E0,9.663774724E0
3.110572924E0,3.397967815E0,-2.488977432E0,-8.377596855E0,9.376850377E0
3.112975996E0,3.146587610E0,-2.445883274E0,-8.123822212E0,9.048748307E0
3.115379538E0,2.947877407E0,-2.419548273E0,-7.922718048E0,8.792818452E0
3.117782611E0,2.758743763E0,-2.409971714E0,-7.731190205E0,8.555111501E0
3.120185111E0,2.624674082E0,-2.369272232E0,-7.630638123E0,8.410053692E0
3.122588601E0,2.574397802E0,-2.352513552E0,-7.599514484E0,8.361486976E0
3.124992090E0,2.574397802E0,-2.295055389E0,-7.618667603E0,8.362948004E0
3.127394642E0,2.655797482E0,-2.259143829E0,-7.738372803E0,8.487603003E0
3.129797246E0,2.837749004E0,-2.247173309E0,-7.941870689E0,8.727881607E0
3.132200267E0,3.079552889E0,-2.177744389E0,-8.166915894E0,8.995817463E0
3.134603653E0,3.371632814E0,-2.110709667E0,-8.437449455E0,9.328105726E0
3.137006569E0,3.725959301E0,-2.084374666E0,-8.743894577E0,9.730523256E0
3.139409330E0,4.094651222E0,-2.034098387E0,-9.095826149E0,1.018026415E1
3.141813132E0,4.492071152E0,-2.002975225E0,-9.423818588E0,1.063009735E1
3.144216517E0,4.889491558E0,-1.964669466E0,-9.747020721E0,1.108022864E1
3.146619069E0,5.241424084E0,-1.926363826E0,-9.988824844E0,1.144377673E1
3.149021986E0,5.562233448E0,-1.911999345E0,-1.025696373E1,1.182368333E1
3.151424799E0,5.837554455E0,-1.847358584E0,-1.042933941E1,1.209383712E1
3.153828028E0,5.983594418E0,-1.832994103E0,-1.049637413E1,1.222035758E1
3.156231153E0,6.064994335E0,-1.813841224E0,-1.044849205E1,1.221659373E1
3.158634278E0,6.033871174E0,-1.818629503E0,-1.025935841E1,1.204032597E1
3.161038288E0,5.921348095E0,-1.816235304E0,-9.948124886E0,1.171862887E1
3.163441986E0,5.744184971E0,-1.840176344E0,-9.519581795E0,1.126962056E1
3.165845267E0,5.507169247E0,-1.864117384E0,-9.031186104E0,1.074086445E1
3.168248549E0,5.222271442E0,-1.856934905E0,-8.533212662E0,1.017526632E1
3.170651726E0,4.961314678E0,-1.859329104E0,-8.085515976E0,9.666815228E0
3.173055580E0,4.724298477E0,-1.849752665E0,-7.642608643E0,9.173333521E0
3.175459017E0,4.475312710E0,-1.885664225E0,-7.328981400E0,8.791935041E0
3.177861830E0,4.274208069E0,-1.883270025E0,-7.094359398E0,8.493850474E0
3.180265371E0,4.118592262E0,-1.897634745E0,-6.948319435E0,8.297165951E0
3.182668496E0,4.015645504E0,-1.923969865E0,-6.921984673E0,8.230488483E0
3.185071205E0,3.967763186E0,-1.928757906E0,-6.989019394E0,8.264964842E0
3.187474330E0,3.989310503E0,-1.943122625E0,-7.161394596E0,8.424719366E0
3.189877299E0,4.080286026E0,-1.943122625E0,-7.463051319E0,8.724769027E0
3.192280528E0,4.188020706E0,-1.931152105E0,-7.750343323E0,9.018685465E0
3.194683392E0,4.307725430E0,-1.955093026E0,-8.071151733E0,9.355339514E0
3.197086153E0,4.393913269E0,-1.947910786E0,-8.379991531E0,9.660491101E0
3.199489799E0,4.482495308E0,-1.935940385E0,-8.657706261E0,9.939643206E0
3.201892976E0,4.547135830E0,-1.950304866E0,-8.901904106E0,1.018449950E1
3.204295319E0,4.568682671E0,-1.923969865E0,-8.949786186E0,1.023099185E1
3.206697871E0,4.597411633E0,-1.935940385E0,-1.010853004E1,1.127237502E1
3.209100840E0,4.573470592E0,-1.897634745E0,-8.583489418E0,9.909285619E0
3.211504330E0,4.618958473E0,-1.789900184E0,-1.030245209E1,1.143149330E1
3.213907299E0,4.544741631E0,-1.780323863E0,-9.045550346E0,1.027843425E1
3.216310059E0,4.604594231E0,-1.631889701E0,-1.000797844E1,1.113665050E1
3.218713913E0,4.580653191E0,-1.567249060E0,-1.010374165E1,1.120376046E1
3.221117299E0,4.609382153E0,-1.483455539E0,-9.371148109E0,1.054824445E1
3.223520111E0,4.662052155E0,-1.378115177E0,-1.081957722E1,1.186158433E1
3.225923705E0,4.635717392E0,-1.399662256E0,-9.282566071E0,1.046971647E1
3.228327299E0,4.662052155E0,-1.356568336E0,-1.018992901E1,1.128758881E1
3.230730944E0,4.566287994E0,-1.437967658E0,-9.739839554E0,1.085279741E1
3.233134121E0,4.458554268E0,-1.524155378E0,-8.825293541E0,1.000437714E1
3.235537351E0,4.322090149E0,-1.591190100E0,-9.921790123E0,1.093865935E1
3.237941205E0,4.080286026E0,-1.751594663E0,-8.059181213E0,9.201479215E0
3.240344226E0,3.948610544E0,-1.830599904E0,-9.040761948E0,1.003384263E1
3.242746934E0,3.704412699E0,-1.964669466E0,-8.334503174E0,9.329873671E0
3.245149903E0,3.539219618E0,-2.058039427E0,-7.565997124E0,8.602669020E0
3.247552871E0,3.409938335E0,-2.108315468E0,-8.655312538E0,9.538716302E0
3.249956309E0,3.208834171E0,-2.271114349E0,-6.811856270E0,7.864856195E0
3.252359486E0,3.180104971E0,-2.297449350E0,-8.049604416E0,8.954745803E0
3.254762559E0,3.043641329E0,-2.448277473E0,-7.362499237E0,8.334519191E0
3.257166205E0,3.014912128E0,-2.548829556E0,-6.965078831E0,8.006157028E0
3.259569382E0,3.038853168E0,-2.661352396E0,-8.346473694E0,9.272596631E0
3.261972194E0,2.983788967E0,-2.812180519E0,-6.840585709E0,7.975272328E0
3.264375371E0,3.122646570E0,-2.862456560E0,-8.602642059E0,9.589057804E0
3.266778496E0,3.139405251E0,-2.951038361E0,-8.131004333E0,9.202050000E0
3.269181830E0,3.330933094E0,-2.953432322E0,-8.245921135E0,9.370864054E0
3.271584694E0,3.491338015E0,-2.936673641E0,-9.806874275E0,1.081611188E1
3.273987299E0,3.627801418E0,-2.905550241E0,-8.456602097E0,9.649729756E0
3.276390580E0,3.903122663E0,-2.769086838E0,-1.039342785E1,1.144227036E1
3.278793496E0,3.984522104E0,-2.682899237E0,-9.720685959E0,1.084279024E1
3.281196205E0,4.183232784E0,-2.517706394E0,-9.840391159E0,1.098506168E1
3.283599434E0,4.262237549E0,-2.364484072E0,-1.105898666E1,1.208547227E1
3.286002767E0,4.228720665E0,-2.307025671E0,-9.375936508E0,1.054099764E1
3.288406517E0,4.262237549E0,-2.149015188E0,-1.099434757E1,1.198585056E1
3.290810007E0,4.101833344E0,-2.134650469E0,-9.727868080E0,1.077094178E1
3.293212976E0,4.044374466E0,-2.077192307E0,-9.694351196E0,1.070757385E1
3.295616517E0,3.936640024E0,-2.034098387E0,-1.047722149E1,1.137571365E1
3.298019590E0,3.740324259E0,-2.084374666E0,-8.674465179E0,9.673726762E0
3.300422611E0,3.680471659E0,-2.014945745E0,-1.021626472E1,1.104436249E1
3.302826205E0,3.570343256E0,-2.067615747E0,-8.722347260E0,9.648923648E0
3.305229746E0,3.615830898E0,-2.031704187E0,-8.892328262E0,9.812010850E0
3.307633340E0,3.634983778E0,-2.024522066E0,-9.275383949E0,1.016585186E1
3.310036153E0,3.713989019E0,-2.017339706E0,-8.612217903E0,9.593418115E0
3.312438757E0,3.814541101E0,-2.010157347E0,-8.667283058E0,9.680560520E0
3.314842403E0,3.931852102E0,-2.038886547E0,-8.485331535E0,9.571696327E0
3.317245476E0,4.010857582E0,-2.053251028E0,-8.442237854E0,9.569440857E0
3.319648392E0,4.049163342E0,-2.070009947E0,-8.353655815E0,9.511268602E0
3.322051882E0,4.094651222E0,-2.103527308E0,-8.334503174E0,9.521288722E0
3.324455215E0,4.070710182E0,-2.139438868E0,-8.298591614E0,9.487597316E0
3.326858757E0,4.053951263E0,-2.168168068E0,-8.303380013E0,9.491132348E0
3.329261882E0,4.006069183E0,-2.201685429E0,-8.317744255E0,9.491094696E0
3.331664799E0,3.919881582E0,-2.216049910E0,-8.344079971E0,9.481562075E0
3.334068340E0,3.869605303E0,-2.230414629E0,-8.394355774E0,9.508617327E0
3.336471257E0,3.857634783E0,-2.278296471E0,-8.470966339E0,9.582758040E0
3.338873757E0,3.876787901E0,-2.283084869E0,-8.621794701E0,9.725086365E0
3.341276569E0,3.888757944E0,-2.256749630E0,-8.731923103E0,9.821498782E0
3.343679590E0,3.922275782E0,-2.273508310E0,-8.830080986E0,9.925896310E0
3.346083132E0,3.989310503E0,-2.271114349E0,-8.947392464E0,1.005626126E1
3.348486257E0,4.073104382E0,-2.256749630E0,-8.988092422E0,1.012269251E1
3.350889330E0,4.166473866E0,-2.249567270E0,-9.064702988E0,1.022687135E1
3.353293444E0,4.156897545E0,-2.266326189E0,-9.098219872E0,1.025639490E1
3.355697038E0,4.152109146E0,-2.259143829E0,-9.107796669E0,1.026136937E1
3.358100007E0,4.101833344E0,-2.287872791E0,-9.079068184E0,1.022198013E1
3.360503080E0,4.073104382E0,-2.333360910E0,-9.009638786E0,1.015915073E1
3.362906309E0,4.049163342E0,-2.342936993E0,-8.940210342E0,1.009021499E1
3.365310007E0,4.058739662E0,-2.405183792E0,-8.801352501E0,9.986094460E0
3.367713184E0,4.092256546E0,-2.486582994E0,-8.624189377E0,9.864395624E0
3.370115892E0,4.125774384E0,-2.548829556E0,-8.470966339E0,9.760933208E0
3.372519330E0,4.226325989E0,-2.642199516E0,-8.334503174E0,9.711178754E0
3.374922246E0,4.348425388E0,-2.702052116E0,-8.190856934E0,9.659193874E0
3.377324642E0,4.458554268E0,-2.800209999E0,-8.128610611E0,9.684740196E0
3.379727715E0,4.628535271E0,-2.872033119E0,-8.066364288E0,9.733352240E0
3.382131101E0,4.817668438E0,-2.941461802E0,-7.951447010E0,9.751288954E0
3.384534851E0,5.021167278E0,-3.015678883E0,-7.862865448E0,9.804646501E0
3.386937976E0,5.272547722E0,-3.080319643E0,-7.791042805E0,9.898912898E0
3.389340788E0,5.492804527E0,-3.097078323E0,-7.668943405E0,9.928518956E0
3.391744382E0,5.748973370E0,-3.156930923E0,-7.537268162E0,9.991362220E0
3.394147559E0,6.000353813E0,-3.192842245E0,-7.309828758E0,9.981587247E0
3.396550371E0,6.213428020E0,-3.231147766E0,-7.072813034E0,9.953476170E0
3.398953705E0,6.452837944E0,-3.262271166E0,-6.826220512E0,9.943782840E0
3.401357090E0,6.637183666E0,-3.326911926E0,-6.543716908E0,9.896503471E0
3.403761049E0,6.802376747E0,-3.350852728E0,-6.261213779E0,9.833785711E0
3.406164694E0,6.974751472E0,-3.360429049E0,-6.045744419E0,9.822966307E0
3.408567559E0,7.156702995E0,-3.391552210E0,-5.835063934E0,9.837123323E0
3.410970892E0,7.317107677E0,-3.389158249E0,-5.665082932E0,9.854928869E0
3.413374121E0,7.458359718E0,-3.346064568E0,-5.533407688E0,9.871265290E0
3.415776882E0,7.587641239E0,-3.346064568E0,-5.463978767E0,9.930937098E0
3.418180059E0,7.714528084E0,-3.322123528E0,-5.382579327E0,9.976101869E0
3.420583288E0,7.810292244E0,-3.312546968E0,-5.260479927E0,9.982298404E0
3.422986934E0,7.831839085E0,-3.293394327E0,-5.174292564E0,9.947736083E0
3.425390111E0,7.858173847E0,-3.259876966E0,-5.054587841E0,9.895784572E0
3.427792871E0,7.807898045E0,-3.247906685E0,-4.942065239E0,9.794701554E0
3.430196257E0,7.748045444E0,-3.223965645E0,-4.807995796E0,9.671762314E0
3.432599434E0,7.681010723E0,-3.228753805E0,-4.688290596E0,9.560483543E0
3.435002611E0,7.544547081E0,-3.216783285E0,-4.594920635E0,9.401126582E0
3.437406309E0,7.463147640E0,-3.202418566E0,-4.580555916E0,9.323923523E0
3.439809799E0,7.388930798E0,-3.190448046E0,-4.559009075E0,9.249855178E0
3.442213653E0,7.333866596E0,-3.211995125E0,-4.618861675E0,9.243181006E0
3.444616882E0,7.242890835E0,-3.200024605E0,-4.748143196E0,9.232794210E0
3.447019642E0,7.242890835E0,-3.190448046E0,-4.898971081E0,9.307972068E0
3.449423236E0,7.206979275E0,-3.192842245E0,-5.131198883E0,9.405529961E0
3.451826309E0,7.185432434E0,-3.195236206E0,-5.332303047E0,9.501233050E0
3.454228965E0,7.149521351E0,-3.223965645E0,-5.583683491E0,9.627415611E0
3.456632038E0,7.123185635E0,-3.209600925E0,-5.856610775E0,9.764281922E0
3.459035424E0,7.060939312E0,-3.200024605E0,-6.103203297E0,9.866413326E0
3.461439330E0,7.005875111E0,-3.192842245E0,-6.340218544E0,9.973710385E0
3.463842663E0,6.922081470E0,-3.178477526E0,-6.567657948E0,1.005743815E1
3.466245528E0,6.821529388E0,-3.156930923E0,-6.740033150E0,1.009591615E1
3.468649330E0,6.675488949E0,-3.152142525E0,-6.914802551E0,1.011497155E1
3.471052715E0,6.560572624E0,-3.082713604E0,-7.048871994E0,1.011092640E1
3.473455788E0,6.371438503E0,-3.068349123E0,-7.075207233E0,1.000342703E1
3.475859174E0,6.175122738E0,-3.032437563E0,-7.106329918E0,9.890790833E0
3.478262403E0,5.952471733E0,-3.039619923E0,-7.053659916E0,9.717269535E0
3.480665996E0,5.708273888E0,-3.025255442E0,-7.048871994E0,9.561545777E0
3.483068965E0,5.456892967E0,-3.025255442E0,-7.094359398E0,9.447739762E0
3.485471778E0,5.224665642E0,-2.991737843E0,-7.137453556E0,9.337605135E0
3.487875528E0,5.004408836E0,-2.984555483E0,-7.233217716E0,9.288224683E0
3.490278653E0,4.798516273E0,-2.958220482E0,-7.386440277E0,9.291734328E0
3.492681465E0,4.621352673E0,-2.931885481E0,-7.544450760E0,9.320493027E0
3.495084851E0,4.487283230E0,-2.910338640E0,-7.752737045E0,9.418636498E0
3.497488132E0,4.369972229E0,-2.886397600E0,-7.953841209E0,9.523210508E0
3.499891830E0,4.276602745E0,-2.886397600E0,-8.178886414E0,9.670305327E0
3.502295059E0,4.214355469E0,-2.893579721E0,-8.408720016E0,9.840740213E0
3.504697819E0,4.156897545E0,-2.917520761E0,-8.626583099E0,1.001047754E1
3.507101413E0,4.128168106E0,-2.946249962E0,-8.825293541E0,1.017879987E1
3.509504851E0,4.137744427E0,-2.953432322E0,-9.052733421E0,1.038246954E1
3.511908028E0,4.137744427E0,-2.960614681E0,-9.253837585E0,1.056028779E1
3.514311361E0,4.140138626E0,-2.943856001E0,-9.457335472E0,1.073537285E1
3.516714694E0,4.144927025E0,-2.922309160E0,-9.617739677E0,1.087295854E1
3.519118444E0,4.171262264E0,-2.888791561E0,-9.773356438E0,1.101194995E1
3.521521674E0,4.144927025E0,-2.850486040E0,-9.864332199E0,1.107297342E1
3.523924330E0,4.142532825E0,-2.800209999E0,-9.919396400E0,1.110838328E1
3.526327819E0,4.118592262E0,-2.728387117E0,-9.938549042E0,1.109872315E1
3.528731101E0,4.113803864E0,-2.694869518E0,-9.883484840E0,1.103942827E1
3.531133913E0,4.132956505E0,-2.661352396E0,-9.790115356E0,1.095492970E1
3.533537038E0,4.168868065E0,-2.615864277E0,-9.651257515E0,1.083369644E1
3.535940059E0,4.238296509E0,-2.596711636E0,-9.469305992E0,1.069456986E1
3.538343601E0,4.336454868E0,-2.584741116E0,-9.287354469E0,1.057074645E1
3.540746934E0,4.477706432E0,-2.606287956E0,-9.088644028E0,1.046164624E1
3.543149851E0,4.640505791E0,-2.608682156E0,-8.885146141E0,1.035786361E1
3.545553288E0,4.832033157E0,-2.625440836E0,-8.719953537E0,1.030917425E1
3.547956257E0,4.999619961E0,-2.668534517E0,-8.509272575E0,1.022374667E1
3.550359121E0,5.064260960E0,-2.709234238E0,-8.255497932E0,1.005683525E1
3.552762403E0,5.035531521E0,-2.737963676E0,-7.992146969E0,9.835010725E0
3.555165632E0,4.882309437E0,-2.790633678E0,-7.755131245E0,9.579490716E0
3.557569174E0,4.611776352E0,-2.855274439E0,-7.506144524E0,9.260846552E0
3.559972403E0,4.257449627E0,-2.876821280E0,-7.307434559E0,8.933116916E0
3.562375111E0,3.898334742E0,-2.924703121E0,-7.173365116E0,8.672258598E0
3.564778392E0,3.618224859E0,-2.922309160E0,-7.115906715E0,8.501033487E0
3.567181465E0,3.407544374E0,-2.905550241E0,-7.123089314E0,8.413797136E0
3.569584590E0,3.297415972E0,-2.879215240E0,-7.175759315E0,8.405614448E0
3.571988080E0,3.297415972E0,-2.840909719E0,-7.242794037E0,8.449957727E0
3.574391257E0,3.448243856E0,-2.793027878E0,-7.367287159E0,8.600483155E0
3.576794746E0,3.704412699E0,-2.764298677E0,-7.506144524E0,8.815113512E0
3.579197715E0,4.039586544E0,-2.716416597E0,-7.642608643E0,9.061271734E0
3.581600267E0,4.374760628E0,-2.704446077E0,-7.774283886E0,9.321590480E0
3.584003913E0,4.714722633E0,-2.678111076E0,-7.946659088E0,9.620305562E0
3.586407142E0,5.037925720E0,-2.697263718E0,-8.138187408E0,9.944145082E0
3.588809799E0,5.320429802E0,-2.656563997E0,-8.315350533E0,1.022298195E1
3.591212559E0,5.547868729E0,-2.646987915E0,-8.502090454E0,1.049146961E1
3.593615528E0,5.689120770E0,-2.644593477E0,-8.676858902E0,1.070737364E1
3.596019121E0,5.772913933E0,-2.649381876E0,-8.844446182E0,1.088898470E1
3.598421986E0,5.818402290E0,-2.680505037E0,-8.964151382E0,1.101793640E1
3.600824642E0,5.787278652E0,-2.709234238E0,-9.071885109E0,1.109646988E1
3.603228184E0,5.686726570E0,-2.747539759E0,-9.110191345E0,1.108527944E1
3.605631101E0,5.533504009E0,-2.778663158E0,-9.107796669E0,1.101329178E1
3.608033965E0,5.373099804E0,-2.816968918E0,-9.086250305E0,1.092545010E1
3.610437351E0,5.212695122E0,-2.843303919E0,-9.026396751E0,1.080427720E1
3.612840476E0,5.095384121E0,-2.886397600E0,-8.952179909E0,1.069746491E1
3.615243809E0,4.994832039E0,-2.895974159E0,-8.870780945E0,1.058422260E1
3.617647038E0,4.939767838E0,-2.912732601E0,-8.772623062E0,1.048065995E1
3.620050163E0,4.911038876E0,-2.917520761E0,-8.679253578E0,1.039036443E1
3.622454121E0,4.925403118E0,-2.934279680E0,-8.605035782E0,1.034003065E1
3.624857611E0,4.949344158E0,-2.939067841E0,-8.588276863E0,1.033888905E1
3.627260684E0,4.975678921E0,-2.934279680E0,-8.597853661E0,1.035811110E1
3.629664278E0,5.006802559E0,-2.958220482E0,-8.655312538E0,1.042753928E1
3.632067559E0,5.023561001E0,-2.982161522E0,-8.686434746E0,1.046821862E1
3.634471413E0,5.013984680E0,-2.963008881E0,-8.751075745E0,1.051193563E1
3.636874955E0,4.975678921E0,-2.965402842E0,-8.784593582E0,1.052236091E1
3.639277924E0,4.894279957E0,-2.943856001E0,-8.822898865E0,1.051017644E1
3.641681361E0,4.803304195E0,-2.960614681E0,-8.820505142E0,1.047083003E1
3.644084278E0,4.650081635E0,-2.946249962E0,-8.796564102E0,1.037705103E1
3.646486934E0,4.511224270E0,-2.910338640E0,-8.758257866E0,1.027269664E1
3.648889903E0,4.374760628E0,-2.895974159E0,-8.684041023E0,1.014582502E1
3.651292767E0,4.214355469E0,-2.857668400E0,-8.617007256E0,1.000898970E1
3.653695996E0,4.070710182E0,-2.807392359E0,-8.578701019E0,9.901830357E0
3.656098965E0,3.948610544E0,-2.771480799E0,-8.516453743E0,9.787881048E0
3.658501726E0,3.864817381E0,-2.723598719E0,-8.458995819E0,9.690686954E0
3.660905580E0,3.838482141E0,-2.678111076E0,-8.485331535E0,9.690566307E0
3.663309226E0,3.797782421E0,-2.635017395E0,-8.516453743E0,9.690018181E0
3.665712299E0,3.795388460E0,-2.567982674E0,-8.557153702E0,9.706924747E0
3.668115580E0,3.821723461E0,-2.546435595E0,-8.633765221E0,9.779151616E0
3.670518913E0,3.912698984E0,-2.512917995E0,-8.715165138E0,9.878161447E0
3.672922715E0,3.986916304E0,-2.453065872E0,-8.796564102E0,9.964565911E0
3.675325840E0,4.111409664E0,-2.419548273E0,-8.937815666E0,1.013126113E1
3.677728757E0,4.228720665E0,-2.359695911E0,-8.990486145E0,1.021171310E1
3.680132715E0,4.353213787E0,-2.299843311E0,-9.093432426E0,1.034070901E1
3.682536257E0,4.465736389E0,-2.259143829E0,-9.107796669E0,1.039223232E1
3.684939174E0,4.549529552E0,-2.239990711E0,-9.143708229E0,1.045577246E1
3.687342455E0,4.611776352E0,-2.218444109E0,-9.170042992E0,1.050141247E1
3.689745996E0,4.640505791E0,-2.160985470E0,-9.167649269E0,1.049999740E1
3.692149851E0,4.618958473E0,-2.149015188E0,-9.153285027E0,1.047547948E1
3.694553392E0,4.604594231E0,-2.149015188E0,-9.103009224E0,1.042522572E1
3.696956621E0,4.542346954E0,-2.105921507E0,-9.050337791E0,1.034294133E1
3.699360632E0,4.444189072E0,-2.065221786E0,-8.949786186E0,1.020365769E1
3.701764174E0,4.302937508E0,-2.050857067E0,-8.724740982E0,9.941951072E0
3.704167194E0,4.085074425E0,-2.029310226E0,-8.480543137E0,9.629410415E0
3.706570632E0,3.848058462E0,-2.005369186E0,-8.233950615E0,9.307362797E0
3.708974174E0,3.572737217E0,-2.012551546E0,-7.992146969E0,8.982718303E0
3.711377871E0,3.326144934E0,-1.991004586E0,-7.745554447E0,8.661463680E0
3.713781153E0,3.079552889E0,-1.974245787E0,-7.544450760E0,8.384511297E0
3.716184330E0,2.861689806E0,-1.986216307E0,-7.367287159E0,8.149309409E0
3.718588080E0,2.749167204E0,-1.993398666E0,-7.254764557E0,8.010191467E0
3.720991257E0,2.660585403E0,-1.988610506E0,-7.149424076E0,7.883371807E0
3.723394069E0,2.639038563E0,-1.962275386E0,-7.111118793E0,7.834734183E0
3.725797299E0,2.682132483E0,-1.986216307E0,-7.091965675E0,7.838039743E0
3.728200580E0,2.785078764E0,-2.000581026E0,-7.175759315E0,7.953018918E0
3.730604382E0,2.904783726E0,-1.991004586E0,-7.252370834E0,8.062180256E0
3.733007871E0,3.038853168E0,-2.019733667E0,-7.360104561E0,8.214931029E0
3.735411049E0,3.189681530E0,-2.048463106E0,-7.501356602E0,8.404797453E0
3.737815111E0,3.350085974E0,-2.079586267E0,-7.656972885E0,8.612606391E0
3.740218601E0,3.527249098E0,-2.122680187E0,-7.834136009E0,8.849912112E0
3.742621569E0,3.654136419E0,-2.153803349E0,-7.999329090E0,9.054327569E0
3.745024955E0,3.788206100E0,-2.199291229E0,-8.138187408E0,9.242157847E0
3.747428288E0,3.931852102E0,-2.228020430E0,-8.241132736E0,9.398925724E0
3.749831882E0,3.974945784E0,-2.249567270E0,-8.372808456E0,9.537539952E0
3.752234955E0,3.974945784E0,-2.259143829E0,-8.430267334E0,9.590272788E0
3.754637767E0,3.958187342E0,-2.285478830E0,-8.494908333E0,9.646456764E0
3.757041465E0,3.919881582E0,-2.271114349E0,-8.504484177E0,9.635854042E0
3.759444955E0,3.826511621E0,-2.254355669E0,-8.480543137E0,9.573083232E0
3.761847924E0,3.721171141E0,-2.247173309E0,-8.437449455E0,9.491441189E0
3.764251361E0,3.620619059E0,-2.216049910E0,-8.370414734E0,9.385286484E0
3.766655007E0,3.508096457E0,-2.163379908E0,-8.334503174E0,9.297897425E0
3.769058913E0,3.438667774E0,-2.151409388E0,-8.260286331E0,9.202463186E0
3.771462194E0,3.381209135E0,-2.134650469E0,-8.205221176E0,9.127703018E0
3.773864955E0,3.362056494E0,-2.132256508E0,-8.169310570E0,9.087770731E0
3.776268653E0,3.376421213E0,-2.108315468E0,-8.171704292E0,9.089662555E0
3.778671986E0,3.419514894E0,-2.098739147E0,-8.183674812E0,9.114292159E0
3.781074799E0,3.476973057E0,-2.091556787E0,-8.248315811E0,9.192315549E0
3.783477976E0,3.524855137E0,-2.086768627E0,-8.291409492E0,9.248063495E0
3.785881153E0,3.589495897E0,-2.065221786E0,-8.368021011E0,9.336669506E0
3.788284694E0,3.654136419E0,-2.101133108E0,-8.447025299E0,9.440323602E0
3.790687924E0,3.706806660E0,-2.079586267E0,-8.499695778E0,9.503153317E0
3.793090996E0,3.699624300E0,-2.060433626E0,-8.542789459E0,9.534771022E0
3.795494851E0,3.666106939E0,-2.065221786E0,-8.535607338E0,9.516410760E0
3.797898132E0,3.642165899E0,-2.055645227E0,-8.514060020E0,9.485792944E0
3.800301361E0,3.558372736E0,-2.050857067E0,-8.427872658E0,9.375343662E0
3.802705059E0,3.486549616E0,-2.026916027E0,-8.322532654E0,9.248187205E0
3.805108653E0,3.419514894E0,-2.010157347E0,-8.219586372E0,9.126632172E0
3.807512559E0,3.333327055E0,-1.947910786E0,-8.109457970E0,8.981577492E0
3.809916101E0,3.292627573E0,-1.914393306E0,-8.008905411E0,8.868419473E0
3.812319382E0,3.290233374E0,-1.852146864E0,-7.944264889E0,8.795875640E0
3.814723236E0,3.271080732E0,-1.825811744E0,-7.917929649E0,8.759404524E0
3.817126569E0,3.309386492E0,-1.746806502E0,-7.958629608E0,8.794495844E0
3.819529590E0,3.340509653E0,-1.725259542E0,-8.049604416E0,8.884348962E0
3.821932767E0,3.366844654E0,-1.670195341E0,-8.152551651E0,8.977153994E0
3.824335736E0,3.421908855E0,-1.629495621E0,-8.123822212E0,8.964441061E0
3.826739174E0,3.476973057E0,-1.639072061E0,-8.128610611E0,8.991674445E0
3.829142246E0,3.534431696E0,-1.696530461E0,-8.140581131E0,9.035457054E0
3.831544955E0,3.613436937E0,-1.792294383E0,-8.140581131E0,9.085059538E0
3.833948549E0,3.678077459E0,-1.909605265E0,-8.138187408E0,9.132630528E0
3.836351726E0,3.723565340E0,-2.038886547E0,-8.097487450E0,9.142827801E0
3.838754746E0,3.778629780E0,-2.165773869E0,-8.044816971E0,9.148098139E0
3.841158184E0,3.828905582E0,-2.321390390E0,-8.011299133E0,9.177705874E0
3.843561621E0,3.881575823E0,-2.450671673E0,-7.984964848E0,9.210433548E0
3.845965684E0,3.931852102E0,-2.541647434E0,-7.915535450E0,9.196474003E0
3.848369121E0,3.943822622E0,-2.658958435E0,-7.877230167E0,9.201877632E0
3.850771986E0,3.986916304E0,-2.769086838E0,-7.891594410E0,9.265020554E0
3.853175736E0,3.967763186E0,-2.879215240E0,-7.886806488E0,9.286266294E0
3.855579069E0,4.010857582E0,-2.965402842E0,-7.901171207E0,9.343933808E0
3.857982246E0,4.010857582E0,-3.044408083E0,-7.891594410E0,9.361231834E0
3.860385840E0,4.041980743E0,-3.152142525E0,-7.941870689E0,9.452350019E0
3.862789538E0,4.075498104E0,-3.200024605E0,-8.035240173E0,9.561115359E0
3.865193861E0,4.156897545E0,-3.252694845E0,-8.178886414E0,9.734166832E0
3.867597715E0,4.211961746E0,-3.307759047E0,-8.379991531E0,9.945157099E0
3.870000840E0,4.298149109E0,-3.314941406E0,-8.547577858E0,1.012541404E1
3.872404538E0,4.393913269E0,-3.283818007E0,-8.770229340E0,1.034441188E1
3.874807924E0,4.475312710E0,-3.257482767E0,-8.949786186E0,1.052322625E1
3.877210996E0,4.547135830E0,-3.202418566E0,-9.107796669E0,1.067163948E1
3.879614434E0,4.573470592E0,-3.161719084E0,-9.265807152E0,1.080593740E1
3.882017819E0,4.573470592E0,-3.101866484E0,-9.342417717E0,1.085444507E1
3.884421569E0,4.539953232E0,-3.063560724E0,-9.383117676E0,1.086459741E1
3.886824903E0,4.511224270E0,-3.022861242E0,-9.337630272E0,1.080185973E1
3.889228028E0,4.470524788E0,-3.015678883E0,-9.237077713E0,1.069595791E1
3.891632038E0,4.379548550E0,-3.010890722E0,-9.141314507E0,1.057400300E1
3.894035007E0,4.355607510E0,-3.039619923E0,-9.098219872E0,1.053509425E1
3.896437455E0,4.336454868E0,-3.037225723E0,-9.050337791E0,1.048514163E1
3.898840476E0,4.372365952E0,-3.042014122E0,-9.021609306E0,1.047668213E1
3.901243601E0,4.434613228E0,-3.015678883E0,-8.992879868E0,1.047053016E1
3.903647299E0,4.499253750E0,-2.970191002E0,-8.968938828E0,1.046456796E1
3.906050684E0,4.614170074E0,-2.955826521E0,-8.985697746E0,1.052474417E1
3.908453705E0,4.695569515E0,-2.934279680E0,-9.021609306E0,1.058526357E1
3.910857246E0,4.757816315E0,-2.912732601E0,-9.064702988E0,1.064376191E1
3.913260424E0,4.798516273E0,-2.886397600E0,-9.088644028E0,1.067522833E1
3.915663340E0,4.793727875E0,-2.872033119E0,-9.088644028E0,1.066920107E1
3.918066413E0,4.776968956E0,-2.895974159E0,-9.059915543E0,1.064369148E1
3.920469434E0,4.724298477E0,-2.898368120E0,-8.964151382E0,1.053923830E1
3.922873028E0,4.678811073E0,-2.953432322E0,-8.806139946E0,1.040010271E1
3.925276465E0,4.652476311E0,-3.032437563E0,-8.657706261E0,1.028577129E1
3.927679642E0,4.640505791E0,-3.065955162E0,-8.564335823E0,1.021186678E1
3.930083549E0,4.640505791E0,-3.156930923E0,-8.557153702E0,1.023354222E1
3.932487194E0,4.709934235E0,-3.207206726E0,-8.511666298E0,1.024295459E1
3.934890424E0,4.839215755E0,-3.283818007E0,-8.530818939E0,1.034293680E1
3.937293601E0,4.973285198E0,-3.319729567E0,-8.538001060E0,1.042360936E1
3.939696830E0,5.148054123E0,-3.381976128E0,-8.494908333E0,1.049303061E1
3.942100684E0,5.289306164E0,-3.444222689E0,-8.514060020E0,1.059852101E1
3.944504174E0,5.406617165E0,-3.537592649E0,-8.535607338E0,1.070526336E1
3.946906986E0,5.528716087E0,-3.609415293E0,-8.578701019E0,1.082537258E1
3.949310476E0,5.641238689E0,-3.640538931E0,-8.583489418E0,1.089740282E1
3.951713809E0,5.720243931E0,-3.695603132E0,-8.538001060E0,1.092136142E1
