"Time (s)","Acceleration x (m/s^2)","Acceleration y (m/s^2)","Acceleration z (m/s^2)","Absolute acceleration (m/s^2)"
0.000000000E0,9.789761543E0,-1.676829696E0,2.131851673E0,1.015854224E1
0.000000000E0,1.012234974E1,-1.993788600E0,2.431773186E0,1.059956028E1
0.000000000E0,1.001386833E1,-2.059818745E0,2.434488535E0,1.050938374E1
0.000000000E0,1.018188763E1,-1.954840660E0,2.485850573E0,1.066169268E1
0.000000000E0,9.614777565E0,-1.908455491E0,1.505766630E0,9.917332460E0
0.000000000E0,9.902696609E0,-1.309462428E0,1.188572884E0,1.005936367E1
0.000000000E0,9.087282181E0,-1.438436985E0,1.075257659E0,9.263043637E0
0.000000000E0,8.473456383E0,-9.136601686E-1,-2.065376341E-1,8.525074532E0
0.000000000E0,8.473456383E0,-9.136601686E-1,-2.065376341E-1,8.525074532E0
0.000000000E0,8.382481575E0,-9.256306291E-1,-2.137199342E-1,8.436140446E0
3.985550000E-4,8.382481575E0,-9.256306291E-1,-2.137199342E-1,8.436140446E0
2.849909000E-3,8.310658455E0,-9.376011491E-1,-1.778084636E-1,8.365270810E0
5.301472000E-3,8.310658455E0,-9.376011491E-1,-1.778084636E-1,8.365270810E0
7.753243000E-3,8.269958496E0,-9.184483886E-1,-1.538674682E-1,8.322225434E0
1.020517000E-2,8.269958496E0,-9.184483886E-1,-1.538674682E-1,8.322225434E0
1.265699300E-2,8.188559532E0,-9.280247688E-1,-1.490792632E-1,8.242327451E0
1.510871100E-2,8.188559532E0,-9.280247688E-1,-1.490792632E-1,8.242327451E0
1.756043000E-2,8.176589012E0,-9.184483886E-1,-1.873848438E-1,8.230143887E0
2.001220100E-2,8.176589012E0,-9.184483886E-1,-1.873848438E-1,8.230143887E0
2.246397200E-2,8.143072128E0,-9.016897082E-1,-2.041435391E-1,8.195385446E0
2.491574300E-2,8.143072128E0,-9.016897082E-1,-2.041435391E-1,8.195385446E0
2.736751400E-2,8.131101608E0,-8.825368881E-1,-1.682320684E-1,8.180585966E0
2.981928400E-2,8.131101608E0,-8.825368881E-1,-1.682320684E-1,8.180585966E0
3.227110700E-2,8.126312256E0,-8.681722879E-1,-1.586556733E-1,8.174096013E0
3.472298200E-2,8.126312256E0,-8.681722879E-1,-1.586556733E-1,8.174096013E0
3.717480500E-2,8.133495331E0,-8.538076878E-1,-1.227441877E-1,8.179107531E0
3.962657600E-2,8.145465851E0,-8.226844072E-1,-8.443860710E-2,8.187341048E0
4.207839900E-2,8.183771133E0,-8.035316467E-1,-3.176843747E-2,8.223185654E0
4.453027400E-2,8.171800613E0,-8.298667073E-1,-1.740384847E-2,8.213848484E0
4.698209700E-2,8.207712173E0,-7.795906663E-1,-2.458613366E-2,8.244689516E0
4.943392000E-2,8.241230011E0,-7.676201463E-1,-7.827445865E-3,8.276906068E0
5.188574300E-2,8.265171051E0,-7.580437660E-1,6.537146866E-3,8.299862986E0
5.433756600E-2,8.301081657E0,-7.460732460E-1,-5.433343351E-3,8.334543268E0
5.678938900E-2,8.346570015E0,-7.245264053E-1,-5.433343351E-3,8.377959122E0
5.924121100E-2,8.387269974E0,-7.364968657E-1,8.931249380E-3,8.419548979E0
6.169303400E-2,8.415998459E0,-7.269204259E-1,-2.458613366E-2,8.447369285E0
6.414485700E-2,8.471062660E0,-7.676201463E-1,-5.810352042E-2,8.505969627E0
6.659668000E-2,8.530915260E0,-7.604378462E-1,-1.658379734E-1,8.566345961E0
6.904850300E-2,8.585979462E0,-7.748024464E-1,-2.448432148E-1,8.624344053E0
7.150032600E-2,8.621891975E0,-7.963493466E-1,-3.262425661E-1,8.664734718E0
7.395214900E-2,8.674561501E0,-8.178961873E-1,-3.573658764E-1,8.720360186E0
7.640397200E-2,8.700896263E0,-8.562018275E-1,-4.459475279E-1,8.754287324E0
7.885579500E-2,8.743990898E0,-8.753545880E-1,-5.297409296E-1,8.803649694E0
8.130761800E-2,8.758355141E0,-9.184483886E-1,-6.326872110E-1,8.829078396E0
8.375949300E-2,8.806236267E0,-9.447834492E-1,-7.547862530E-1,8.888875927E0
8.621136800E-2,8.832571983E0,-1.007030010E0,-8.744912148E-1,8.932702400E0
8.866324300E-2,8.854118347E0,-1.019000530E0,-9.798315763E-1,8.966261412E0
9.111511800E-2,8.875665665E0,-1.035759211E0,-1.070807338E0,8.999825914E0
9.356699300E-2,8.882847786E0,-1.071670651E0,-1.111506939E0,9.016036294E0
9.601886800E-2,8.923547745E0,-1.109976172E0,-1.133053899E0,9.063418924E0
9.847069100E-2,8.937912941E0,-1.126734972E0,-1.109112859E0,9.076670688E0
1.009225140E-1,8.976217270E0,-1.155464053E0,-1.087566018E0,9.115392120E0
1.033743360E-1,8.995370865E0,-1.196163654E0,-1.073201418E0,9.137793266E0
1.058261590E-1,9.031281471E0,-1.198557854E0,-1.049260378E0,9.170688812E0
1.082779820E-1,9.004946709E0,-1.236863494E0,-1.121083379E0,9.158369094E0
1.107298050E-1,8.992977142E0,-1.256016254E0,-1.236000180E0,9.164000827E0
1.131816280E-1,9.002552986E0,-1.260804415E0,-1.324581742E0,9.186408702E0
1.156334510E-1,8.981005669E0,-1.272774935E0,-1.353310943E0,9.171143296E0
1.180728780E-1,8.961853981E0,-1.296715975E0,-1.386828423E0,9.160763733E0
1.204886070E-1,8.978611946E0,-1.301504135E0,-1.439498544E0,9.185942605E0
1.228920970E-1,9.019311905E0,-1.308686495E0,-1.422739744E0,9.224144186E0
1.252953260E-1,9.028887749E0,-1.318262815E0,-1.480198145E0,9.243896223E0
1.276989720E-1,9.062405586E0,-1.289533615E0,-1.508927345E0,9.277227694E0
1.301025140E-1,9.093528748E0,-1.303898215E0,-1.590326786E0,9.323173007E0
1.325066800E-1,9.124651909E0,-1.311080456E0,-1.592720866E0,9.354943302E0
1.349104820E-1,9.177321434E0,-1.323050976E0,-1.621449947E0,9.412905636E0
1.373136070E-1,9.244357109E0,-1.335021496E0,-1.554415226E0,9.468718364E0
1.397174610E-1,9.297026634E0,-1.332627296E0,-1.473015904E0,9.506859397E0
1.421207950E-1,9.373639107E0,-1.344597816E0,-1.413163424E0,9.574449554E0
1.445238160E-1,9.416731834E0,-1.356568336E0,-1.346128583E0,9.608703256E0
1.469272530E-1,9.495738029E0,-1.409238577E0,-1.336552262E0,9.692335428E0
1.493305340E-1,9.536437035E0,-1.418814898E0,-1.322187662E0,9.731641549E0
1.517342840E-1,9.531648636E0,-1.459514618E0,-1.343734503E0,9.735919630E0
1.541378260E-1,9.569954872E0,-1.469091058E0,-1.322187662E0,9.771921255E0
1.565410550E-1,9.538830757E0,-1.505002499E0,-1.398798823E0,9.757610511E0
1.589449090E-1,9.538830757E0,-1.550490379E0,-1.427528024E0,9.768886778E0
1.613483470E-1,9.464613914E0,-1.586401820E0,-1.484986424E0,9.710858457E0
1.637514720E-1,9.409549713E0,-1.624707460E0,-1.525686026E0,9.669902687E0
1.661553260E-1,9.340120316E0,-1.667801261E0,-1.587932587E0,9.619820084E0
1.685590240E-1,9.251538277E0,-1.682165861E0,-1.650179148E0,9.546922734E0
1.709630860E-1,9.184504509E0,-1.708500981E0,-1.726790428E0,9.500310724E0
1.733669930E-1,9.098317146E0,-1.730047822E0,-1.839313030E0,9.442219696E0
1.757703260E-1,8.990582466E0,-1.732441783E0,-1.963806152E0,9.364211778E0
1.781743890E-1,8.933123589E0,-1.765959263E0,-1.942259312E0,9.310836719E0
1.805781390E-1,8.873271942E0,-1.737230062E0,-2.583877563E0,9.403687921E0
1.829813680E-1,8.708078384E0,-1.749200583E0,-1.865648150E0,9.075845682E0
1.853850660E-1,8.633861542E0,-1.756382823E0,-2.054781914E0,9.047130731E0
1.877888160E-1,8.552462578E0,-1.756382823E0,-2.837652206E0,9.180510161E0
1.901928260E-1,8.380087852E0,-1.782717943E0,-1.848889351E0,8.764835852E0
1.925964200E-1,8.344175339E0,-1.718077302E0,-3.105791092E0,9.067689342E0
1.949998050E-1,8.246017456E0,-1.732441783E0,-2.610212803E0,8.821075291E0
1.974041800E-1,8.234047890E0,-1.679771662E0,-2.737100124E0,8.838149952E0
1.998083470E-1,8.284323692E0,-1.634283781E0,-3.390688896E0,9.099322706E0
2.022119410E-1,8.325022697E0,-1.631889701E0,-2.354044437E0,8.804010002E0
2.046155340E-1,8.475851059E0,-1.543308139E0,-3.397871017E0,9.261067899E0
2.070195450E-1,8.521338463E0,-1.572037220E0,-2.641335964E0,9.058761830E0
2.094240760E-1,8.686532021E0,-1.526549339E0,-2.770617485E0,9.244593700E0
2.118278260E-1,8.794266701E0,-1.471485138E0,-3.306895733E0,9.509992361E0
2.142312640E-1,8.897212982E0,-1.483455539E0,-2.334891319E0,9.317336350E0
2.166353780E-1,9.016917229E0,-1.425997257E0,-3.529546738E0,9.787541298E0
2.190388160E-1,9.050435066E0,-1.459514618E0,-2.667671204E0,9.547618942E0
2.214420970E-1,9.148592949E0,-1.440361857E0,-2.945386410E0,9.718369016E0
2.238460030E-1,9.182110786E0,-1.466696978E0,-3.345201015E0,9.881939504E0
2.262498050E-1,9.215627670E0,-1.524155378E0,-2.272644520E0,9.613311401E0
2.286542840E-1,9.337726593E0,-1.519367099E0,-3.347595215E0,1.003533796E1
2.310586590E-1,9.371243477E0,-1.612736940E0,-2.203216076E0,9.760905994E0
2.334627740E-1,9.483766556E0,-1.612736940E0,-2.507266521E0,9.941284320E0
2.358677740E-1,9.512495995E0,-1.665407062E0,-2.715553284E0,1.003171921E1
2.382723570E-1,9.531648636E0,-1.734835982E0,-1.700455308E0,9.836337218E0
2.406765760E-1,9.584319115E0,-1.742018342E0,-2.887928486E0,1.016041002E1
2.430812640E-1,9.526860237E0,-1.854540944E0,-1.662149668E0,9.846985813E0
2.454858990E-1,9.541224480E0,-1.835388064E0,-2.236733437E0,9.970285371E0
2.478908990E-1,9.488554955E0,-1.897634745E0,-2.294191837E0,9.944697529E0
2.502954820E-1,9.399973869E0,-1.957487226E0,-1.449074864E0,9.710359568E0
2.526994930E-1,9.392790794E0,-1.957487226E0,-2.689218044E0,9.964344877E0
2.551042320E-1,9.246750832E0,-2.029310226E0,-1.456257105E0,9.578161916E0
2.575084510E-1,9.249144554E0,-2.017339706E0,-2.272644520E0,9.735566115E0
2.599122530E-1,9.174927711E0,-2.043674707E0,-2.234339237E0,9.661686015E0
2.623164720E-1,9.098317146E0,-2.060433626E0,-1.566385746E0,9.459298385E0
2.647206390E-1,9.105498314E0,-2.019733667E0,-2.768223286E0,9.728950806E0
2.671253260E-1,9.002552986E0,-2.081980467E0,-1.547232985E0,9.368806372E0
2.695296490E-1,9.033676147E0,-2.007763147E0,-2.519237041E0,9.590879671E0
2.719335550E-1,8.992977142E0,-2.034098387E0,-2.375590801E0,9.521272278E0
2.743381390E-1,8.969036102E0,-2.024522066E0,-1.915924072E0,9.392180964E0
2.767424090E-1,9.028887749E0,-1.981428146E0,-3.127337933E0,9.758438093E0
2.791464720E-1,9.004946709E0,-2.026916027E0,-1.856071591E0,9.415012244E0
2.815508990E-1,9.076769829E0,-1.969457746E0,-2.938204288E0,9.741640456E0
2.839551180E-1,9.048040390E0,-2.010157347E0,-2.540783882E0,9.610585320E0
2.863598570E-1,9.091135025E0,-2.014945745E0,-2.196033955E0,9.567199566E0
2.887642840E-1,9.105498314E0,-1.998186827E0,-3.285348892E0,9.884147282E0
2.911680860E-1,9.060011864E0,-2.072404146E0,-2.002111912E0,9.507214420E0
2.935727740E-1,9.141410828E0,-2.031704187E0,-3.189584732E0,9.892758189E0
2.959771490E-1,9.062405586E0,-2.096344948E0,-2.691612244E0,9.683317284E0
2.983808990E-1,9.064799309E0,-2.072404146E0,-2.531207561E0,9.637035705E0
3.007848050E-1,9.067193985E0,-2.072404146E0,-3.505605698E0,9.939725198E0
3.031886590E-1,9.052828789E0,-2.125074148E0,-2.208004475E0,9.557454315E0
3.055928780E-1,9.112681389E0,-2.046068907E0,-3.476876736E0,9.965742918E0
3.079966800E-1,9.050435066E0,-2.134650469E0,-2.811316967E0,9.714453695E0
3.104000660E-1,9.071981430E0,-2.098739147E0,-2.849622726E0,9.737859249E0
3.128040240E-1,9.091135025E0,-2.084374666E0,-3.754591942E0,1.005436793E1
3.152076700E-1,9.093528748E0,-2.110709667E0,-2.581483364E0,9.685629393E0
3.176111590E-1,9.172533989E0,-2.046068907E0,-3.946119785E0,1.019282292E1
3.200148050E-1,9.146198273E0,-2.062827587E0,-3.163249493E0,9.895167904E0
3.224184510E-1,9.227597237E0,-2.022127867E0,-3.292531013E0,1.000391485E1
3.248225660E-1,9.234780312E0,-1.988610506E0,-4.022730827E0,1.026733181E1
3.272262110E-1,9.253933907E0,-1.986216307E0,-2.804134846E0,9.871348449E0
3.296295970E-1,9.323361397E0,-1.897634745E0,-4.175953388E0,1.039060499E1
3.320337640E-1,9.273085594E0,-1.911999345E0,-3.163249493E0,9.982585100E0
3.344375660E-1,9.318573952E0,-1.847358584E0,-3.412235737E0,1.009415212E1
3.368412640E-1,9.270691872E0,-1.773141623E0,-3.922179222E0,1.022121562E1
3.392453780E-1,9.222809792E0,-1.797082543E0,-2.696400166E0,9.775494871E0
3.416492840E-1,9.263509750E0,-1.720471382E0,-3.970060825E0,1.022418787E1
3.440536070E-1,9.143804550E0,-1.758776903E0,-2.849622726E0,9.737700320E0
3.464578260E-1,9.143804550E0,-1.670195341E0,-3.196766853E0,9.829447209E0
3.488615760E-1,9.079163551E0,-1.663012981E0,-3.510394096E0,9.875205804E0
3.512660550E-1,9.021705627E0,-1.684559941E0,-2.423472881E0,9.492214464E0
3.536701700E-1,9.021705627E0,-1.624707460E0,-3.716286659E0,9.891492976E0
3.560740240E-1,8.959458351E0,-1.684559941E0,-2.533601284E0,9.461964469E0
3.584783990E-1,9.014523506E0,-1.629495621E0,-3.120155811E0,9.677409897E0
3.608825660E-1,8.969036102E0,-1.658224821E0,-3.309289455E0,9.702819944E0
3.632871490E-1,8.995370865E0,-1.677377582E0,-2.366014957E0,9.451366003E0
3.656912640E-1,9.105498314E0,-1.648648500E0,-3.716286659E0,9.971906937E0
3.680947010E-1,9.071981430E0,-1.763565183E0,-2.492901802E0,9.572124561E0
3.704988160E-1,9.177321434E0,-1.734835982E0,-3.237466812E0,9.885043042E0
3.729025140E-1,9.186898232E0,-1.787506223E0,-3.321259975E0,9.931014321E0
3.753058470E-1,9.215627670E0,-1.823417544E0,-2.557542324E0,9.736203964E0
3.777099090E-1,9.268298149E0,-1.832994103E0,-3.900631905E0,1.022135741E1
3.801141280E-1,9.213233948E0,-1.926363826E0,-2.605424404E0,9.766411505E0
3.825186070E-1,9.244357109E0,-1.921575665E0,-3.498423576E0,1.006923825E1
3.849226180E-1,9.182110786E0,-1.988610506E0,-3.402659416E0,9.992188016E0
3.873258990E-1,9.160563469E0,-2.041280746E0,-2.749070644E0,9.779577678E0
3.897299610E-1,9.141410828E0,-2.038886547E0,-3.941331863E0,1.016152287E1
3.921338680E-1,9.052828789E0,-2.137044668E0,-2.593453884E0,9.656431641E0
3.945374090E-1,9.055222511E0,-2.122680187E0,-3.551093578E0,9.955555811E0
3.969411590E-1,8.973823547E0,-2.163379908E0,-3.225496292E0,9.778218039E0
3.993448050E-1,8.942700386E0,-2.163379908E0,-2.670065403E0,9.580258456E0
4.017488680E-1,8.947488785E0,-2.149015188E0,-3.788109303E0,9.951160431E0
4.041526700E-1,8.902000427E0,-2.187320709E0,-2.442625523E0,9.486643397E0
4.065561070E-1,8.959458351E0,-2.101133108E0,-3.543911457E0,9.861336760E0
4.089603780E-1,8.921154022E0,-2.115497828E0,-3.079456329E0,9.671885619E0
4.113642840E-1,8.933123589E0,-2.079586267E0,-2.715553284E0,9.565542626E0
4.137677220E-1,8.966641426E0,-2.022127867E0,-3.766562462E0,9.933612251E0
4.161712640E-1,8.918759346E0,-2.041280746E0,-2.435443401E0,9.467971267E0
4.185750140E-1,9.040858269E0,-1.933546185E0,-3.646857738E0,9.938575876E0
4.209792840E-1,9.052828789E0,-1.885664225E0,-3.093820572E0,9.750957101E0
4.233831390E-1,9.174927711E0,-1.823417544E0,-2.916657448E0,9.798522374E0
4.257867320E-1,9.275479317E0,-1.737230062E0,-3.888661385E0,1.020657495E1
4.281911070E-1,9.323361397E0,-1.708500981E0,-2.581483364E0,9.823853607E0
4.305951700E-1,9.474190712E0,-1.603160620E0,-3.847961903E0,1.035071130E1
4.329988160E-1,9.467007637E0,-1.622313380E0,-3.148884773E0,1.010799731E1
4.354026700E-1,9.550801277E0,-1.555278540E0,-3.134520531E0,1.017162304E1
4.378062640E-1,9.581924438E0,-1.505002499E0,-3.924572945E0,1.046329686E1
4.402106390E-1,9.579530716E0,-1.509790659E0,-2.624577522E0,1.004665535E1
4.426147530E-1,9.627412796E0,-1.445150137E0,-3.934149265E0,1.050014602E1
4.450184510E-1,9.581924438E0,-1.483455539E0,-3.029180050E0,1.015824040E1
4.474230860E-1,9.593895912E0,-1.457120538E0,-3.112973690E0,1.019100801E1
4.498272010E-1,9.577136993E0,-1.471485138E0,-3.780927181E0,1.040106878E1
4.522306910E-1,9.536437035E0,-1.531337619E0,-2.538389683E0,9.986593433E0
4.546341280E-1,9.565165520E0,-1.485849738E0,-3.912602425E0,1.044071830E1
4.570377220E-1,9.467007637E0,-1.569643259E0,-2.945386410E0,1.003809318E1
4.594420970E-1,9.514889717E0,-1.572037220E0,-3.242254734E0,1.017431291E1
4.618458990E-1,9.498131752E0,-1.619919181E0,-3.740227699E0,1.033576065E1
4.642491800E-1,9.459825516E0,-1.689348102E0,-2.615001202E0,9.958937046E0
4.666533470E-1,9.512495995E0,-1.634283781E0,-3.970060825E0,1.043646715E1
4.690570970E-1,9.474190712E0,-1.727653742E0,-2.890322208E0,1.005480182E1
4.714603260E-1,9.531648636E0,-1.708500981E0,-3.347595215E0,1.024586234E1
4.738641280E-1,9.546013832E0,-1.751594663E0,-3.764168739E0,1.040977571E1
4.762682430E-1,9.565165520E0,-1.794688463E0,-2.732311726E0,1.010835424E1
4.786726700E-1,9.670506477E0,-1.756382823E0,-4.080189705E0,1.064196994E1
4.810765760E-1,9.644171715E0,-1.844964623E0,-2.895110607E0,1.023697260E1
4.834801180E-1,9.727964401E0,-1.823417544E0,-3.505605698E0,1.049987687E1
4.858845450E-1,9.737542152E0,-1.842570424E0,-3.668404579E0,1.056749663E1
4.882886070E-1,9.751905441E0,-1.873693705E0,-2.679641724E0,1.028546876E1
4.906920450E-1,9.804575920E0,-1.830599904E0,-3.991607666E0,1.074307855E1
4.930957950E-1,9.739935875E0,-1.902422786E0,-2.698794365E0,1.028440831E1
4.954998050E-1,9.816546440E0,-1.823417544E0,-3.419418335E0,1.055376034E1
4.979041800E-1,9.811758995E0,-1.854540944E0,-3.452935696E0,1.056563778E1
5.003079820E-1,9.816546440E0,-1.854540944E0,-2.624577522E0,1.032919713E1
5.027116800E-1,9.876399040E0,-1.799476743E0,-3.907814026E0,1.077276125E1
5.051158990E-1,9.857245445E0,-1.828205824E0,-2.571907043E0,1.034999179E1
5.075198570E-1,9.960192680E0,-1.765959263E0,-3.481664658E0,1.069794556E1
5.099236590E-1,9.962586403E0,-1.777929664E0,-3.342806816E0,1.065779148E1
5.123276180E-1,9.998497963E0,-1.720471382E0,-2.696400166E0,1.049764531E1
5.147320450E-1,1.005356312E1,-1.663012981E0,-3.967666626E0,1.093536108E1
5.171369410E-1,1.002722645E1,-1.710894942E0,-2.615001202E0,1.050288832E1
5.195413680E-1,1.010383892E1,-1.617525101E0,-3.603763580E0,1.084855107E1
5.219452220E-1,1.007510853E1,-1.643860221E0,-3.275772095E0,1.072104338E1
5.243499090E-1,1.008229160E1,-1.615131140E0,-2.763434887E0,1.057817683E1
5.267546490E-1,1.009426212E1,-1.564854980E0,-3.895843983E0,1.093254313E1
5.291586070E-1,1.004638004E1,-1.605554700E0,-2.468961239E0,1.046916078E1
5.315622010E-1,1.009426212E1,-1.557672739E0,-3.543911457E0,1.081109525E1
5.339659510E-1,1.005356312E1,-1.593584180E0,-3.069879532E0,1.063192373E1
5.363701180E-1,1.007510853E1,-1.560066819E0,-2.686823845E0,1.054327476E1
5.387738160E-1,1.007750320E1,-1.533731699E0,-3.658827782E0,1.083030122E1
5.411774610E-1,1.004159164E1,-1.579219580E0,-2.263068676E0,1.041388386E1
5.435821490E-1,1.007750320E1,-1.497820258E0,-3.428994656E0,1.074976933E1
5.459862110E-1,1.002004433E1,-1.528943419E0,-2.777799606E0,1.050976341E1
5.483899610E-1,1.003919792E1,-1.521761179E0,-2.612607002E0,1.048460621E1
5.507942320E-1,1.003680325E1,-1.473879218E0,-3.546305656E0,1.074644235E1
5.531985030E-1,9.986527443E0,-1.536125779E0,-2.234339237E0,1.034807637E1
5.556030860E-1,1.001765060E1,-1.447544098E0,-3.563064098E0,1.073052344E1
5.580069410E-1,9.938645363E0,-1.488243818E0,-2.820893288E0,1.043786282E1
5.604103260E-1,9.938645363E0,-1.452332377E0,-2.907081127E0,1.045643637E1
5.628145450E-1,9.912310600E0,-1.445150137E0,-3.752198219E0,1.069679166E1
5.652184510E-1,9.847669601E0,-1.452332377E0,-2.579089642E0,1.028287748E1
5.676219410E-1,9.893157959E0,-1.409238577E0,-3.986819267E0,1.075896164E1
5.700259510E-1,9.862034798E0,-1.478667498E0,-3.153673172E0,1.045905552E1
5.724299090E-1,9.919492722E0,-1.445150137E0,-3.397871017E0,1.058443774E1
5.748342320E-1,9.893157959E0,-1.447544098E0,-4.087371826E0,1.080169277E1
5.772384510E-1,9.909916878E0,-1.471485138E0,-2.998056889E0,1.045753633E1
5.796424090E-1,9.960192680E0,-1.435573578E0,-4.460851192E0,1.100752030E1
5.820467840E-1,9.926674843E0,-1.485849738E0,-3.579822540E0,1.065653566E1
5.844505860E-1,9.974556923E0,-1.464302778E0,-4.039489746E0,1.086063745E1
5.868543360E-1,9.926674843E0,-1.493031979E0,-4.590132713E0,1.103799512E1
5.892586590E-1,9.900340080E0,-1.533731699E0,-3.577428818E0,1.063800092E1
5.916627220E-1,9.938645363E0,-1.485849738E0,-5.004311562E0,1.122619950E1
5.940670970E-1,9.869216919E0,-1.569643259E0,-3.926967144E0,1.073714550E1
5.964711590E-1,9.897945404E0,-1.548096299E0,-4.511126995E0,1.098709207E1
5.988749610E-1,9.857245445E0,-1.576825500E0,-4.913336277E0,1.112620959E1
6.012797010E-1,9.802181244E0,-1.629495621E0,-3.955696106E0,1.069511780E1
6.036840240E-1,9.845275879E0,-1.600766420E0,-5.368214607E0,1.132738444E1
6.060879820E-1,9.754300117E0,-1.677377582E0,-4.147224426E0,1.073123650E1
6.084919930E-1,9.811758995E0,-1.663012981E0,-4.860665798E0,1.107530129E1
6.108960550E-1,9.768664360E0,-1.715683222E0,-5.021070004E0,1.111672237E1
6.133007430E-1,9.768664360E0,-1.734835982E0,-4.147224426E0,1.075341479E1
6.157051180E-1,9.797393799E0,-1.710894942E0,-5.461584568E0,1.134658507E1
6.181088680E-1,9.747117996E0,-1.777929664E0,-4.108918667E0,1.072616221E1
6.205131910E-1,9.830910683E0,-1.720471382E0,-4.884606838E0,1.111153502E1
6.229170450E-1,9.778240204E0,-1.746806502E0,-4.748143196E0,1.100954941E1
6.253205340E-1,9.773452759E0,-1.742018342E0,-3.914996624E0,1.067156058E1
6.277246490E-1,9.816546440E0,-1.701318622E0,-5.054587841E0,1.117174683E1
6.301287640E-1,9.747117996E0,-1.739624262E0,-3.548699379E0,1.051788330E1
6.325332950E-1,9.771059036E0,-1.713289022E0,-4.379452229E0,1.084382570E1
6.349376180E-1,9.665719032E0,-1.746806502E0,-3.998789787E0,1.060508261E1
6.373416280E-1,9.627412796E0,-1.756382823E0,-3.251831055E0,1.031243730E1
6.397463160E-1,9.603471756E0,-1.696530461E0,-4.348328590E0,1.067767985E1
6.421504300E-1,9.399973869E0,-1.775535703E0,-2.868775368E0,9.987087057E0
6.445542840E-1,9.371243477E0,-1.718077302E0,-3.835991383E0,1.027067786E1
6.469585550E-1,9.253933907E0,-1.782717943E0,-3.333230495E0,9.996189351E0
6.493624610E-1,9.198868752E0,-1.775535703E0,-2.780193806E0,9.772471076E0
6.517668890E-1,9.160563469E0,-1.765959263E0,-3.886267662E0,1.010631543E1
6.541712640E-1,9.031281471E0,-1.847358584E0,-2.449808121E0,9.538256580E0
6.565752220E-1,9.019311905E0,-1.816235304E0,-3.718680382E0,9.923471252E0
6.589799610E-1,8.928336143E0,-1.895240545E0,-3.251831055E0,9.689248073E0
6.613842840E-1,8.890030861E0,-1.902422786E0,-3.115367413E0,9.610274464E0
6.637877220E-1,8.846936226E0,-1.902422786E0,-4.324387550E0,1.002934797E1
6.661914720E-1,8.799055099E0,-2.010157347E0,-3.103397369E0,9.544379416E0
6.685952740E-1,8.830177307E0,-1.986216307E0,-4.640408516E0,1.017106079E1
6.709992840E-1,8.743990898E0,-2.046068907E0,-4.144830227E0,9.890570884E0
6.734029300E-1,8.755960464E0,-2.079586267E0,-4.293263912E0,9.971140242E0
6.758063160E-1,8.710473061E0,-2.077192307E0,-5.490313530E0,1.050383794E1
6.782106390E-1,8.605133057E0,-2.156197548E0,-4.580555916E0,9.983936863E0
6.806144930E-1,8.552462578E0,-2.125074148E0,-5.162322044E0,1.021323285E1
6.830180860E-1,8.418393135E0,-2.192109108E0,-5.966739178E0,1.054877537E1
6.854222010E-1,8.303475380E0,-2.216049910E0,-5.607624531E0,1.026177536E1
6.878260030E-1,8.164618492E0,-2.247173309E0,-5.952374458E0,1.035091999E1
6.902300140E-1,7.985061169E0,-2.251961231E0,-5.954768658E0,1.021233573E1
6.926333990E-1,7.839021206E0,-2.232808590E0,-6.072079659E0,1.016394800E1
6.950365760E-1,7.673828602E0,-2.228020430E0,-6.134325981E0,1.007381138E1
6.974406390E-1,7.511029720E0,-2.213655710E0,-6.234878540E0,1.000947299E1
6.998441280E-1,7.360201836E0,-2.187320709E0,-6.273184299E0,9.915129056E0
7.022471490E-1,7.197402477E0,-2.122680187E0,-6.234878540E0,9.756130586E0
7.046507950E-1,7.065727711E0,-2.081980467E0,-6.170237541E0,9.608901189E0
7.070546490E-1,6.905322552E0,-2.024522066E0,-6.086443901E0,9.424806019E0
7.094587110E-1,6.790406227E0,-1.964669466E0,-5.988286018E0,9.264400265E0
7.118624090E-1,6.670701027E0,-1.880875945E0,-5.926039696E0,9.118875643E0
7.142657950E-1,6.558178425E0,-1.809053063E0,-5.870975494E0,8.986141023E0
7.166699610E-1,6.455232143E0,-1.751594663E0,-5.808728695E0,8.858861944E0
7.190738680E-1,6.359467983E0,-1.744412303E0,-5.744088173E0,8.745304812E0
7.214777740E-1,6.299615860E0,-1.713289022E0,-5.629171848E0,8.620214322E0
7.238820970E-1,6.278069019E0,-1.710894942E0,-5.475949287E0,8.504547767E0
7.262862110E-1,6.282856941E0,-1.696530461E0,-5.262874126E0,8.369608773E0
7.286904820E-1,6.270886421E0,-1.730047822E0,-5.095287800E0,8.263113199E0
7.310944410E-1,6.155970097E0,-1.763565183E0,-4.966006279E0,8.103539248E0
7.334982430E-1,5.942894936E0,-1.832994103E0,-4.896577358E0,7.915449288E0
7.359030860E-1,5.698697090E0,-1.923969865E0,-4.781660557E0,7.683819769E0
7.383072530E-1,5.478440285E0,-2.010157347E0,-4.582950115E0,7.420072255E0
7.407105340E-1,5.265365124E0,-2.060433626E0,-4.362693310E0,7.141606929E0
7.431143890E-1,5.095384121E0,-2.132256508E0,-4.259747028E0,6.975306581E0
7.455183470E-1,4.944556236E0,-2.192109108E0,-4.223835468E0,6.862562552E0
7.479227220E-1,4.820062637E0,-2.287872791E0,-4.276505470E0,6.837826027E0
7.503267320E-1,4.753028393E0,-2.338149071E0,-4.393816471E0,6.882139432E0
7.527302740E-1,4.683598995E0,-2.441095352E0,-4.626044273E0,7.021063430E0
7.551345970E-1,4.683598995E0,-2.532071114E0,-4.918124199E0,7.248132815E0
7.575387110E-1,4.666840553E0,-2.596711636E0,-5.248509407E0,7.487934499E0
7.599425140E-1,4.654870033E0,-2.663746357E0,-5.672265053E0,7.806276354E0
7.623464720E-1,4.585441113E0,-2.709234238E0,-6.100809097E0,8.098524063E0
7.647502740E-1,4.506436348E0,-2.745145798E0,-6.524564266E0,8.391289107E0
7.671545450E-1,4.432218552E0,-2.757116318E0,-6.969866753E0,8.707772059E0
7.695584510E-1,4.367578030E0,-2.742751598E0,-7.381651402E0,9.004843230E0
7.719620450E-1,4.310119629E0,-2.742751598E0,-7.759919167E0,9.290649225E0
7.743665240E-1,4.235902786E0,-2.663746357E0,-8.147763252E0,9.561614042E0
7.767706390E-1,4.183232784E0,-2.608682156E0,-8.504484177E0,9.830102249E0
7.791746490E-1,4.130562782E0,-2.556012154E0,-8.863598824E0,1.010733056E1
7.815788680E-1,4.080286026E0,-2.496159554E0,-9.150891304E0,1.032561660E1
7.839826700E-1,4.073104382E0,-2.445883274E0,-9.399877548E0,1.053234173E1
7.863872010E-1,4.046769142E0,-2.369272232E0,-9.634499550E0,1.071510023E1
7.887912640E-1,4.020433903E0,-2.335754871E0,-9.797297478E0,1.084466124E1
7.911948050E-1,3.972551584E0,-2.283084869E0,-9.940942764E0,1.094604886E1
7.935992840E-1,3.915093184E0,-2.242385149E0,-1.006304169E1,1.102819359E1
7.960032950E-1,3.857634783E0,-2.228020430E0,-1.009177113E1,1.103128576E1
7.984069410E-1,3.802570581E0,-2.218444109E0,-1.015401840E1,1.106729990E1
8.008110030E-1,3.740324259E0,-2.223232269E0,-1.018753529E1,1.107784557E1
8.032151180E-1,3.666106939E0,-2.249567270E0,-1.021626472E1,1.108480753E1
8.056196490E-1,3.608648777E0,-2.275902271E0,-1.019950581E1,1.105585799E1
8.080236590E-1,3.579919338E0,-2.304631472E0,-1.022584152E1,1.107677677E1
8.104273570E-1,3.567948818E0,-2.323784351E0,-1.026175213E1,1.111007602E1
8.128319930E-1,3.606254578E0,-2.330966473E0,-1.029766369E1,1.115707642E1
8.152361590E-1,3.630195379E0,-2.364484072E0,-1.029526997E1,1.116967713E1
8.176397530E-1,3.692442179E0,-2.393213272E0,-1.027611732E1,1.117855922E1
8.200437110E-1,3.733141661E0,-2.421942234E0,-1.033596897E1,1.125319534E1
8.224476700E-1,3.783417940E0,-2.445883274E0,-1.035272789E1,1.129050801E1
8.248519410E-1,3.828905582E0,-2.503341913E0,-1.037906265E1,1.134249445E1
8.272557950E-1,3.869605303E0,-2.517706394E0,-1.039342785E1,1.137260010E1
8.296591280E-1,3.879182100E0,-2.532071114E0,-1.041976357E1,1.140310969E1
8.320632950E-1,3.862423182E0,-2.560800076E0,-1.047003937E1,1.144979189E1
8.344670970E-1,3.833693743E0,-2.613470316E0,-1.045088577E1,1.143452877E1
8.368704820E-1,3.773841381E0,-2.632622957E0,-1.041497517E1,1.138614466E1
8.392742840E-1,3.668501139E0,-2.658958435E0,-1.034315205E1,1.129197745E1
8.416782950E-1,3.544008017E0,-2.678111076E0,-1.026893520E1,1.118853440E1
8.440826700E-1,3.417120695E0,-2.670928717E0,-1.016598797E1,1.105250584E1
8.464865240E-1,3.275868893E0,-2.690081596E0,-1.005825424E1,1.091495920E1
8.488901700E-1,3.113070250E0,-2.702052116E0,-9.938549042E0,1.075950970E1
8.512945970E-1,2.952665567E0,-2.702052116E0,-9.754202843E0,1.054342414E1
8.536984510E-1,2.797049284E0,-2.706840038E0,-9.581828117E0,1.034223853E1
8.561019410E-1,2.629462242E0,-2.694869518E0,-9.416636467E0,1.014147108E1
8.585062110E-1,2.504969120E0,-2.718810558E0,-9.251442909E0,9.962730401E0
8.609106390E-1,2.373293638E0,-2.721204758E0,-9.062309265E0,9.755148756E0
8.633149090E-1,2.222465515E0,-2.725993156E0,-8.928238869E0,9.596032563E0
8.657185030E-1,2.150642395E0,-2.781057358E0,-8.834870338E0,9.508652725E0
8.681221490E-1,2.052484512E0,-2.771480799E0,-8.813323021E0,9.464061557E0
8.705268890E-1,1.992632031E0,-2.795421839E0,-8.808533669E0,9.453847421E0
8.729313680E-1,1.959114671E0,-2.795421839E0,-8.808533669E0,9.446839627E0
8.753353260E-1,1.942355990E0,-2.797815800E0,-8.858811378E0,9.490998845E0
8.777394930E-1,1.973479390E0,-2.816968918E0,-8.918663025E0,9.558895592E0
8.801434510E-1,2.030937672E0,-2.814574480E0,-9.002455711E0,9.648354583E0
8.825477740E-1,2.062060833E0,-2.804998398E0,-9.122160912E0,9.763909595E0
8.849519410E-1,2.155430555E0,-2.785845280E0,-9.249049187E0,9.897056414E0
8.873561070E-1,2.210494995E0,-2.776268959E0,-9.344813347E0,9.995973887E0
8.897612110E-1,2.287106276E0,-2.747539759E0,-9.488457680E0,1.013955911E1
8.921656910E-1,2.373293638E0,-2.737963676E0,-9.624921799E0,1.028436130E1
8.945698050E-1,2.466663361E0,-2.702052116E0,-9.699139595E0,1.036623474E1
8.969738680E-1,2.560033321E0,-2.656563997E0,-9.756598473E0,1.043083490E1
8.993778260E-1,2.672555923E0,-2.591923475E0,-9.790115356E0,1.047411004E1
9.017823050E-1,2.758743763E0,-2.553617716E0,-9.763780594E0,1.046245870E1
9.041861590E-1,2.799443245E0,-2.488977432E0,-9.727868080E0,1.042416944E1
9.065897010E-1,2.823384285E0,-2.417154312E0,-9.624921799E0,1.031761859E1
9.089944410E-1,2.806625605E0,-2.362090111E0,-9.488457680E0,1.017287797E1
9.113987640E-1,2.811413765E0,-2.297449350E0,-9.304113388E0,9.987434446E0
9.138024090E-1,2.739590883E0,-2.242385149E0,-9.148495674E0,9.809618875E0
9.162063160E-1,2.696496964E0,-2.218444109E0,-9.016820908E0,9.669314837E0
9.186103260E-1,2.615097761E0,-2.168168068E0,-8.894721985E0,9.521332273E0
9.210149610E-1,2.572003841E0,-2.127468348E0,-8.775016785E0,9.388410137E0
9.234192320E-1,2.548062801E0,-2.098739147E0,-8.707982063E0,9.312694651E0
9.258229820E-1,2.526515961E0,-2.079586267E0,-8.693617821E0,9.289077067E0
9.282276180E-1,2.543274641E0,-2.046068907E0,-8.676858902E0,9.270519094E0
9.306320450E-1,2.591156721E0,-2.007763147E0,-8.681647301E0,9.279881781E0
9.330358470E-1,2.684526443E0,-2.010157347E0,-8.717558861E0,9.340409374E0
9.354401180E-1,2.737196684E0,-1.998186827E0,-8.760652542E0,9.393297038E0
9.378445450E-1,2.818596125E0,-2.014945745E0,-8.827687263E0,9.483277540E0
9.402495450E-1,2.885630846E0,-2.007763147E0,-8.937815666E0,9.604297326E0
9.426542320E-1,2.933512926E0,-2.019733667E0,-8.995274544E0,9.674698253E0
9.450580860E-1,2.983788967E0,-2.029310226E0,-9.069491386E0,9.760982051E0
9.474626180E-1,3.065188169E0,-2.041280746E0,-9.083856583E0,9.801972047E0
9.498670970E-1,3.115464449E0,-2.041280746E0,-9.033579826E0,9.771310572E0
9.522714720E-1,3.177711010E0,-2.060433626E0,-8.954574585E0,9.722532591E0
9.546760030E-1,3.206440210E0,-2.091556787E0,-8.830080986E0,9.624250560E0
9.570802740E-1,3.254321814E0,-2.120285988E0,-8.648130417E0,9.480315546E0
9.594849090E-1,3.304598093E0,-2.146620989E0,-8.447025299E0,9.320975626E0
9.618893890E-1,3.362056494E0,-2.199291229E0,-8.174098969E0,9.108029410E0
9.642933470E-1,3.426697254E0,-2.232808590E0,-7.896383286E0,8.892724963E0
9.666980340E-1,3.484155416E0,-2.251961231E0,-7.633032322E0,8.687568750E0
9.691025140E-1,3.539219618E0,-2.290266991E0,-7.384045601E0,8.502677686E0
9.715061590E-1,3.620619059E0,-2.323784351E0,-7.159000397E0,8.352253753E0
9.739103260E-1,3.721171141E0,-2.364484072E0,-6.998596191E0,8.271532399E0
9.763146490E-1,3.816935062E0,-2.388425112E0,-6.900437832E0,8.239515159E0
9.787192320E-1,3.951004744E0,-2.438701153E0,-6.809462070E0,8.241751967E0
9.811236070E-1,4.113803864E0,-2.443489313E0,-6.780733109E0,8.298937507E0
9.835275660E-1,4.271814346E0,-2.493765354E0,-6.768762589E0,8.383520169E0
9.859320970E-1,4.405883789E0,-2.551223755E0,-6.866920471E0,8.548400515E0
9.883363680E-1,4.480100632E0,-2.575164795E0,-7.010566711E0,8.709237682E0
9.907403780E-1,4.551923752E0,-2.587135315E0,-7.216459274E0,8.915748058E0
9.931445450E-1,4.597411633E0,-2.618258476E0,-7.412775040E0,9.107178759E0
9.955488160E-1,4.664446831E0,-2.620652676E0,-7.604302883E0,9.297865724E0
9.979535550E-1,4.654870033E0,-2.606287956E0,-7.831742287E0,9.476114139E0
1.000357826E0,4.690781593E0,-2.575164795E0,-8.040028572E0,9.658000058E0
1.002761680E0,4.683598995E0,-2.553617716E0,-8.245921135E0,9.821012084E0
1.005166472E0,4.659657955E0,-2.541647434E0,-8.375202179E0,9.915462444E0
1.007570951E0,4.654870033E0,-2.474612474E0,-8.499695778E0,1.000181735E1
1.009974961E0,4.626140594E0,-2.462642193E0,-8.590671539E0,1.006307214E1
1.012379232E0,4.642899513E0,-2.431518793E0,-8.626583099E0,1.009389595E1
1.014783399E0,4.664446831E0,-2.426730633E0,-8.691224098E0,1.015792607E1
1.017188139E0,4.697963715E0,-2.419548273E0,-8.696012497E0,1.017574126E1
1.019592618E0,4.748239517E0,-2.441095352E0,-8.707982063E0,1.021438577E1
1.021996472E0,4.820062637E0,-2.455459833E0,-8.676858902E0,1.022497761E1
1.024401107E0,4.930191040E0,-2.488977432E0,-8.612217903E0,1.023093786E1
1.026805430E0,5.025955200E0,-2.503341913E0,-8.490118980E0,1.017885390E1
1.029209493E0,5.148054123E0,-2.522494555E0,-8.327321053E0,1.010988209E1
1.031613920E0,5.241424084E0,-2.570376635E0,-8.087910652E0,9.974650931E0
1.034017878E0,5.361129284E0,-2.582347155E0,-7.836530685E0,9.839788474E0
1.036421941E0,5.535898209E0,-2.658958435E0,-7.242794037E0,9.496014659E0
1.038825743E0,5.576598167E0,-2.694869518E0,-7.166182518E0,9.471797122E0
1.041229180E0,5.557445049E0,-2.728387117E0,-7.185335636E0,9.484637049E0
1.043633399E0,5.600539207E0,-2.730781078E0,-6.986625671E0,9.361417787E0
1.046037201E0,5.646027088E0,-2.709234238E0,-6.895649433E0,9.314910259E0
1.048440691E0,5.686726570E0,-2.725993156E0,-6.838191032E0,9.302190837E0
1.050844493E0,5.744184971E0,-2.721204758E0,-6.752003670E0,9.273088475E0
1.053248243E0,5.868678093E0,-2.675716877E0,-6.663422108E0,9.273728352E0
1.055652305E0,5.962048054E0,-2.680505037E0,-6.603569508E0,9.291838058E0
1.058056107E0,6.064994335E0,-2.649381876E0,-6.572446346E0,9.327402188E0
1.060459545E0,6.160758018E0,-2.627834797E0,-6.474287987E0,9.315409815E0
1.062863659E0,6.268492699E0,-2.611076355E0,-6.467106342E0,9.377376226E0
1.065267514E0,6.345103741E0,-2.608682156E0,-6.421617985E0,9.396953847E0
1.067670899E0,6.452837944E0,-2.601499796E0,-6.325854301E0,9.403369150E0
1.070074597E0,6.574937344E0,-2.582347155E0,-6.275578022E0,9.448872812E0
1.072478191E0,6.720977306E0,-2.565588236E0,-6.239666462E0,9.522983593E0
1.074881993E0,6.838288307E0,-2.539253235E0,-6.210937500E0,9.580487388E0
1.077285586E0,6.962780952E0,-2.510524035E0,-6.182208061E0,9.643793135E0
1.079689076E0,7.068121433E0,-2.486582994E0,-6.134325981E0,9.683562920E0
1.082093243E0,7.154309273E0,-2.493765354E0,-6.081655979E0,9.715428259E0
1.084497201E0,7.223738194E0,-2.498553514E0,-6.127144337E0,9.796277909E0
1.086900847E0,7.300349236E0,-2.498553514E0,-6.151084900E0,9.867812020E0
1.089304545E0,7.348231316E0,-2.529676914E0,-6.213331699E0,9.949937666E0
1.091708086E0,7.410477638E0,-2.551223755E0,-6.316277504E0,1.006574801E1
1.094112357E0,7.448782921E0,-2.579952955E0,-6.467106342E0,1.019627327E1
1.096516628E0,7.477512836E0,-2.596711636E0,-6.601175785E0,1.030687301E1
1.098920639E0,7.475118160E0,-2.603893757E0,-6.790308952E0,1.042909152E1
1.101325170E0,7.470330238E0,-2.623046875E0,-7.003384113E0,1.057041143E1
1.103729024E0,7.467936039E0,-2.661352396E0,-7.180547714E0,1.069640738E1
1.106132514E0,7.458359718E0,-2.651775837E0,-7.328981400E0,1.078763242E1
1.108536628E0,7.398507118E0,-2.675716877E0,-7.491780281E0,1.086389158E1
1.110940691E0,7.321896076E0,-2.718810558E0,-7.604302883E0,1.090080343E1
1.113344961E0,7.259649754E0,-2.747539759E0,-7.709642887E0,1.094029628E1
1.115748816E0,7.127974033E0,-2.781057358E0,-7.783860207E0,1.091470447E1
1.118152357E0,7.005875111E0,-2.819362879E0,-7.822165966E0,1.087278131E1
1.120556680E0,6.878987789E0,-2.864850760E0,-7.877230167E0,1.084336654E1
1.122960795E0,6.761677265E0,-2.917520761E0,-7.898777008E0,1.079920761E1
1.125364649E0,6.675488949E0,-2.986949921E0,-7.934688568E0,1.079088992E1
1.127768816E0,6.596484184E0,-3.070743322E0,-7.932294846E0,1.076403129E1
1.130172982E0,6.517478466E0,-3.161719084E0,-7.949053288E0,1.075460094E1
1.132577305E0,6.431291103E0,-3.250300646E0,-8.023269653E0,1.078419285E1
1.134981211E0,6.316374779E0,-3.312546968E0,-8.186069489E0,1.085731511E1
1.137384753E0,6.246945858E0,-3.381976128E0,-8.399143219E0,1.100035008E1
1.139789024E0,6.139211178E0,-3.405917168E0,-8.578701019E0,1.108531898E1
1.142192982E0,6.074570656E0,-3.420281649E0,-8.722347260E0,1.116593377E1
1.144596576E0,5.983594418E0,-3.377187729E0,-8.770229340E0,1.114117237E1
1.147000378E0,5.909377575E0,-3.324517488E0,-8.818111420E0,1.112349985E1
1.149403868E0,5.808825493E0,-3.252694845E0,-8.844446182E0,1.107008155E1
1.151807774E0,5.729820251E0,-3.176083565E0,-8.837264061E0,1.100070830E1
1.154211472E0,5.641238689E0,-3.111442804E0,-8.837264061E0,1.093626474E1
1.156614857E0,5.531110287E0,-3.046802282E0,-8.798957825E0,1.083041292E1
1.159018920E0,5.425769806E0,-2.982161522E0,-8.763047218E0,1.072955087E1
1.161422774E0,5.339581966E0,-2.931885481E0,-8.688830376E0,1.061144954E1
1.163826211E0,5.239030361E0,-2.884003639E0,-8.566730499E0,1.044766900E1
1.166229753E0,5.121719360E0,-2.864850760E0,-8.482936859E0,1.031501802E1
1.168633451E0,4.997226238E0,-2.836121559E0,-8.758257866E0,1.047487167E1
1.171037514E0,4.839215755E0,-2.761904478E0,-7.781466007E0,9.570649858E0
1.173441316E0,4.733875275E0,-2.735569239E0,-8.875569344E0,1.042442542E1
1.175844597E0,4.561500072E0,-2.733175278E0,-7.187729836E0,8.940972553E0
1.178248920E0,4.463342190E0,-2.670928717E0,-8.600248337E0,1.005084848E1
1.180652774E0,4.267025948E0,-2.654170036E0,-7.817377567E0,9.293197569E0
1.183056003E0,4.144927025E0,-2.594317675E0,-7.542056084E0,8.988521247E0
1.185459805E0,4.041980743E0,-2.558406115E0,-8.497302055E0,9.751266195E0
1.187863555E0,3.905516863E0,-2.570376635E0,-6.998596191E0,8.416664818E0
1.190267878E0,3.860028982E0,-2.498553514E0,-8.298591614E0,9.487318703E0
1.192671889E0,3.728353739E0,-2.539253235E0,-7.498962402E0,8.751163677E0
1.195075274E0,3.711594820E0,-2.534465075E0,-7.443898201E0,8.695462595E0
1.197479389E0,3.682865620E0,-2.546435595E0,-8.406326294E0,9.524397890E0
1.199883034E0,3.591889858E0,-2.608682156E0,-7.070418835E0,8.348515906E0
1.202286159E0,3.663712978E0,-2.577558756E0,-8.595459938E0,9.692705168E0
1.204689909E0,3.613436937E0,-2.675716877E0,-7.735978127E0,8.947722888E0
1.207093816E0,3.670895100E0,-2.663746357E0,-7.922718048E0,9.129100545E0
1.209497878E0,3.668501139E0,-2.682899237E0,-8.808533669E0,9.911917792E0
1.211901680E0,3.651742458E0,-2.754722118E0,-7.475021839E0,8.763542002E0
1.214305274E0,3.735535860E0,-2.730781078E0,-9.134132385E0,1.023932458E1
1.216709753E0,3.687654018E0,-2.788239479E0,-8.054393768E0,9.286890251E0
1.219113764E0,3.790600061E0,-2.759510279E0,-8.494908333E0,9.702938389E0
1.221517253E0,3.857634783E0,-2.749933958E0,-9.239472389E0,1.038322363E1
1.223921159E0,3.970157862E0,-2.793027878E0,-7.994541168E0,9.352852328E0
1.226324909E0,4.190414429E0,-2.718810558E0,-9.809267998E0,1.100787185E1
1.228729232E0,4.281390667E0,-2.749933958E0,-8.628976822E0,1.001756876E1
1.231133347E0,4.504041672E0,-2.658958435E0,-9.340023994E0,1.070478863E1
1.233536836E0,4.633323193E0,-2.627834797E0,-1.003910065E1,1.136471475E1
1.235941055E0,4.748239517E0,-2.611076355E0,-8.966545105E0,1.047675662E1
1.238344805E0,4.889491558E0,-2.498553514E0,-1.087224770E1,1.218013413E1
1.240748243E0,4.834427834E0,-2.491371393E0,-9.557887077E0,1.099690089E1
1.243152201E0,4.848792076E0,-2.354907513E0,-1.032399940E1,1.164651612E1
1.245555639E0,4.688387871E0,-2.326178551E0,-1.053707409E1,1.176528868E1
1.247959389E0,4.468130112E0,-2.249567270E0,-9.170042992E0,1.044578518E1
1.250362826E0,4.252661705E0,-2.141832829E0,-1.058495617E1,1.160663071E1
1.252765691E0,3.862423182E0,-2.127468348E0,-8.669676781E0,9.726650497E0
1.255169649E0,3.587101698E0,-2.029310226E0,-9.227501869E0,1.010604717E1
1.257573399E0,3.204046011E0,-2.010157347E0,-8.954574585E0,9.720650667E0
1.259976732E0,2.899995327E0,-1.998186827E0,-7.599514484E0,8.375878694E0
1.262380326E0,2.706073523E0,-1.919181585E0,-8.997668266E0,9.589792808E0
1.264783816E0,2.409205198E0,-1.983822227E0,-7.154211998E0,7.805291130E0
1.267188034E0,2.351746798E0,-1.890452504E0,-8.037634850E0,8.585342023E0
1.269591993E0,2.275135756E0,-1.957487226E0,-8.413508415E0,8.932811584E0
1.271995482E0,2.255982876E0,-1.904816985E0,-7.281099796E0,7.856984200E0
1.274399649E0,2.279923916E0,-1.900028825E0,-7.819771767E0,8.364029715E0
1.276803347E0,2.311047077E0,-1.900028825E0,-8.195645332E0,8.724657617E0
1.279206680E0,2.320623398E0,-1.911999345E0,-8.358444214E0,8.882827485E0
1.281610639E0,2.334988117E0,-1.926363826E0,-8.798957825E0,9.305090322E0
1.284014649E0,2.287106276E0,-1.955093026E0,-8.976120949E0,9.466994832E0
1.286419180E0,2.234436035E0,-1.950304866E0,-9.253837585E0,9.717505005E0
1.288823295E0,2.145854473E0,-1.967063546E0,-9.430999756E0,9.870044924E0
1.291226993E0,2.064455032E0,-1.928757906E0,-9.510004997E0,9.920800204E0
1.293631472E0,1.980661511E0,-1.919181585E0,-9.526763916E0,9.917938732E0
1.296035795E0,1.942355990E0,-1.864117384E0,-9.438181877E0,9.814629772E0
1.298439909E0,1.901656508E0,-1.825811744E0,-9.328054428E0,9.693424855E0
1.300844128E0,1.908838630E0,-1.775535703E0,-9.232290268E0,9.593298470E0
1.303248086E0,1.966297030E0,-1.742018342E0,-9.184408188E0,9.552711954E0
1.305652461E0,2.009390593E0,-1.742018342E0,-9.272990227E0,9.646793571E0
1.308056316E0,2.124307394E0,-1.713289022E0,-9.416636467E0,9.804136042E0
1.310459649E0,2.267953396E0,-1.658224821E0,-9.648862839E0,1.004957095E1
1.312864024E0,2.428357840E0,-1.615131140E0,-9.873908043E0,1.029561219E1
1.315267982E0,2.572003841E0,-1.572037220E0,-1.013965321E1,1.057823577E1
1.317671420E0,2.708467484E0,-1.500214338E0,-1.040779209E1,1.085857152E1
1.320075222E0,2.835354567E0,-1.473879218E0,-1.060889721E1,1.107972272E1
1.322479284E0,2.897601366E0,-1.428391337E0,-1.074536037E1,1.122047972E1
1.324884024E0,2.923936367E0,-1.387691736E0,-1.080521297E1,1.127952657E1
1.327288034E0,2.933512926E0,-1.394873977E0,-1.076451302E1,1.124392778E1
1.329691264E0,2.907177687E0,-1.390085697E0,-1.061129093E1,1.108979331E1
1.332095586E0,2.923936367E0,-1.385297537E0,-1.036230469E1,1.085568107E1
1.334499805E0,2.943089247E0,-1.368538857E0,-1.009177113E1,1.060087342E1
1.336903607E0,2.986182928E0,-1.332627296E0,-9.811661720E0,1.034223814E1
1.339307878E0,3.043641329E0,-1.313474536E0,-9.579434395E0,1.013679097E1
1.341711941E0,3.146587610E0,-1.251228094E0,-9.419030190E0,1.000923149E1
1.344116003E0,3.263898373E0,-1.188981414E0,-9.306507111E0,9.933669211E0
1.346519493E0,3.381209135E0,-1.160252333E0,-9.294536591E0,9.958271493E0
1.348922514E0,3.510490656E0,-1.131523132E0,-9.344813347E0,1.004636381E1
1.351326420E0,3.651742458E0,-1.114764452E0,-9.447758675E0,1.019009650E1
1.353730118E0,3.766659260E0,-1.109976172E0,-9.591404915E0,1.036411199E1
1.356133399E0,3.838482141E0,-1.105188012E0,-9.787720680E0,1.057141721E1
1.358537149E0,3.898334742E0,-1.129128933E0,-9.986431122E0,1.077964528E1
1.360940951E0,3.907911062E0,-1.167434573E0,-1.013725948E1,1.092697132E1
1.363345326E0,3.883970022E0,-1.210528374E0,-1.024738789E1,1.102540523E1
1.365749336E0,3.840876341E0,-1.234469295E0,-1.031442356E1,1.107535909E1
1.368152878E0,3.747506380E0,-1.265592575E0,-1.035751629E1,1.108709485E1
1.370557357E0,3.627801418E0,-1.294321775E0,-1.028569317E1,1.098324615E1
1.372961420E0,3.522461176E0,-1.315868735E0,-1.019471836E1,1.086607223E1
1.375364753E0,3.426697254E0,-1.320656896E0,-1.003670692E1,1.068746343E1
1.377768399E0,3.359662533E0,-1.303898215E0,-9.816450119E0,1.045706344E1
1.380172461E0,3.256716251E0,-1.335021496E0,-9.562676430E0,1.018986083E1
1.382576889E0,3.182499170E0,-1.380509377E0,-9.299324989E0,9.925298603E0
1.384980951E0,3.060400009E0,-1.471485138E0,-9.055127144E0,9.670917450E0
1.387384441E0,2.880842686E0,-1.548096299E0,-8.815716743E0,9.402803754E0
1.389788503E0,2.658191442E0,-1.682165861E0,-8.638552666E0,9.193489864E0
1.392192149E0,2.370899677E0,-1.811447024E0,-8.499695778E0,9.008181499E0
1.394595378E0,2.069243193E0,-1.904816985E0,-8.370414734E0,8.830285270E0
1.396999180E0,1.810680628E0,-2.007763147E0,-8.293803215E0,8.723350787E0
1.399403034E0,1.585635304E0,-2.103527308E0,-8.250709534E0,8.661020394E0
1.401807305E0,1.420442581E0,-2.163379908E0,-8.226768494E0,8.624244291E0
1.404210951E0,1.293555260E0,-2.247173309E0,-8.265073776E0,8.662246684E0
1.406614284E0,1.255249619E0,-2.318996191E0,-8.348867416E0,8.755397311E0
1.409018659E0,1.317496300E0,-2.383636713E0,-8.391962051E0,8.822842374E0
1.411422774E0,1.432412982E0,-2.453065872E0,-8.497302055E0,8.959546939E0
1.413826628E0,1.532965183E0,-2.541647434E0,-8.696012497E0,9.188611826E0
1.416230899E0,1.683793426E0,-2.642199516E0,-9.162860870E0,9.683718186E0
1.418634961E0,1.817862868E0,-2.749933958E0,-9.778143883E0,1.031885943E1
1.421039336E0,2.026149511E0,-2.836121559E0,-1.037906265E1,1.094868983E1
1.423443347E0,2.260771275E0,-2.874427080E0,-1.089140034E1,1.148895205E1
1.425846941E0,2.516939640E0,-2.869638920E0,-1.128882122E1,1.191668147E1
1.428251368E0,2.823384285E0,-2.840909719E0,-1.158808327E1,1.226074797E1
1.430655430E0,3.074764729E0,-2.809786320E0,-1.179158115E1,1.250561727E1
1.433059284E0,3.304598093E0,-2.766692638E0,-1.190171051E1,1.265802788E1
1.435463503E0,3.508096457E0,-2.706840038E0,-1.180834007E1,1.261232013E1
1.437867618E0,3.673289299E0,-2.668534517E0,-1.155696011E1,1.241682156E1
1.440272253E0,3.752294779E0,-2.639805317E0,-1.127445602E1,1.217216689E1
1.442676420E0,3.757082701E0,-2.646987915E0,-1.099913502E1,1.192070411E1
1.445080534E0,3.754688740E0,-2.644593477E0,-1.077169514E1,1.170986671E1
1.447485274E0,3.778629780E0,-2.627834797E0,-1.049876785E1,1.146331912E1
1.449889441E0,3.845664263E0,-2.615864277E0,-1.019950581E1,1.120989733E1
1.452293399E0,3.953398943E0,-2.620652676E0,-9.840391159E0,1.092384922E1
1.454697878E0,4.089862823E0,-2.644593477E0,-9.438181877E0,1.062074054E1
1.457102149E0,4.211961746E0,-2.675716877E0,-9.040761948E0,1.032644465E1
1.459506472E0,4.360395432E0,-2.702052116E0,-8.605035782E0,1.001802250E1
1.461910378E0,4.513617992E0,-2.773874998E0,-8.262680054E0,9.815243836E0
1.464314232E0,4.609382153E0,-2.862456560E0,-8.078334808E0,9.731369619E0
1.466718711E0,4.733875275E0,-2.967797041E0,-7.980176449E0,9.741694439E0
1.469122566E0,4.817668438E0,-3.070743322E0,-7.980176449E0,9.814408280E0
1.471526055E0,4.937373638E0,-3.168901443E0,-8.032846451E0,9.947171302E0
1.473929961E0,5.045108318E0,-3.255088806E0,-8.042423248E0,1.003639840E1
1.476333816E0,5.157630444E0,-3.329305887E0,-8.104669571E0,1.016715783E1
1.478737878E0,5.253394604E0,-3.398734808E0,-8.195645332E0,1.031106956E1
1.481141784E0,5.353946686E0,-3.444222689E0,-8.241132736E0,1.041362971E1
1.483545691E0,5.461681366E0,-3.482527971E0,-8.212404251E0,1.045951949E1
1.485950170E0,5.583780289E0,-3.516045570E0,-8.102275848E0,1.044930872E1
1.488353920E0,5.648421288E0,-3.539986610E0,-7.946659088E0,1.037234587E1
1.490757566E0,5.741790771E0,-3.549562931E0,-7.807801247E0,1.032130411E1
1.493161628E0,5.847131252E0,-3.571109772E0,-7.668943405E0,1.028369884E1
1.495565847E0,5.962048054E0,-3.556745291E0,-7.563602924E0,1.026667148E1
1.497970586E0,6.136816978E0,-3.587868690E0,-7.429533482E0,1.028257225E1
1.500374649E0,6.361862659E0,-3.566321611E0,-7.281099796E0,1.030564702E1
1.502778399E0,6.598878384E0,-3.528016090E0,-7.144636154E0,1.034591317E1
1.505183399E0,6.874199867E0,-3.482527971E0,-6.993807793E0,1.040653508E1
1.507588139E0,7.130368233E0,-3.420281649E0,-6.857344151E0,1.046726547E1
1.509992253E0,7.400901318E0,-3.374793768E0,-6.653845787E0,1.050886469E1
1.512396472E0,7.633128643E0,-3.291000366E0,-6.479076385E0,1.053915400E1
1.514800899E0,7.839021206E0,-3.226359606E0,-6.246849060E0,1.053008893E1
1.517206055E0,8.042519569E0,-3.156930923E0,-5.990680218E0,1.051363797E1
1.519610430E0,8.205318451E0,-3.099472284E0,-5.645930290E0,1.043122755E1
1.522014180E0,8.336993217E0,-3.018073082E0,-5.401731968E0,1.038233737E1
1.524418816E0,8.435152054E0,-2.970191002E0,-5.241327763E0,1.036558447E1
1.526823139E0,8.566826820E0,-2.869638920E0,-5.133593082E0,1.039130056E1
1.529226889E0,8.722443581E0,-2.781057358E0,-5.049799442E0,1.045541852E1
1.531631159E0,8.904395103E0,-2.711628437E0,-5.013888359E0,1.057261829E1
1.534035378E0,9.122257233E0,-2.646987915E0,-4.954035759E0,1.071282373E1
1.536439909E0,9.361667633E0,-2.587135315E0,-4.887000561E0,1.087275791E1
1.538844389E0,9.579530716E0,-2.558406115E0,-4.824754238E0,1.102683563E1
1.541248503E0,9.696841240E0,-2.556012154E0,-4.798418999E0,1.111695790E1
1.543653451E0,9.761482239E0,-2.584741116E0,-4.800813198E0,1.118102095E1
1.546058295E0,9.711205482E0,-2.601499796E0,-4.793631077E0,1.113796265E1
1.548462618E0,9.629806519E0,-2.670928717E0,-4.793631077E0,1.108358844E1
1.550867149E0,9.467007637E0,-2.749933958E0,-4.822360039E0,1.097458549E1
1.553271732E0,9.308998108E0,-2.836121559E0,-4.805601597E0,1.085333304E1
1.555676628E0,9.119863510E0,-2.907944679E0,-4.803206921E0,1.070975487E1
1.558081003E0,8.925941467E0,-3.001314402E0,-4.898971081E0,1.061509476E1
1.560484909E0,8.691319466E0,-3.125807524E0,-5.076134682E0,1.053930026E1
1.562889805E0,8.454304695E0,-3.240724325E0,-5.353849888E0,1.051861543E1
1.565294284E0,8.222076416E0,-3.326911926E0,-5.626777172E0,1.050388047E1
1.567698347E0,7.980272770E0,-3.456192970E0,-5.847034454E0,1.047940052E1
1.570102618E0,7.716922283E0,-3.532804251E0,-6.093626499E0,1.044815196E1
1.572506836E0,7.460753441E0,-3.630962372E0,-6.340218544E0,1.044246622E1
1.574911420E0,7.175856113E0,-3.666873932E0,-6.603569508E0,1.041854144E1
1.577315847E0,6.893352032E0,-3.757849693E0,-6.895649433E0,1.044938839E1
1.579720118E0,6.589301586E0,-3.827278376E0,-7.197306156E0,1.048180190E1
1.582124961E0,6.323556423E0,-3.882342577E0,-7.482203484E0,1.053770937E1
1.584529493E0,6.093723297E0,-3.958953857E0,-7.755131245E0,1.062773917E1
1.586933711E0,5.892619133E0,-3.997259378E0,-8.011299133E0,1.071830008E1
1.589338347E0,5.708273888E0,-4.023594379E0,-8.257891655E0,1.081510412E1
1.591743139E0,5.562233448E0,-4.076264381E0,-8.456602097E0,1.091185095E1
1.594147930E0,5.449710846E0,-4.124146461E0,-8.605035782E0,1.098883857E1
1.596551836E0,5.389858246E0,-4.116963863E0,-8.741499901E0,1.106407628E1
1.598955170E0,5.296488762E0,-4.148087502E0,-8.921056747E0,1.117339146E1
1.601359024E0,5.243818283E0,-4.183999062E0,-9.021609306E0,1.124246026E1
1.603762566E0,5.212695122E0,-4.203151703E0,-9.045550346E0,1.125436163E1
1.606165899E0,5.181571484E0,-4.198363781E0,-8.992879868E0,1.119583984E1
1.608569649E0,5.052290440E0,-4.188786983E0,-8.916269302E0,1.107119837E1
1.610973086E0,4.903856277E0,-4.186393261E0,-8.894721985E0,1.098588977E1
1.613377045E0,4.669234753E0,-4.128934383E0,-8.885146141E0,1.085337156E1
1.615780951E0,4.458554268E0,-4.042747021E0,-8.854022026E0,1.070589630E1
1.618184545E0,4.228720665E0,-3.946983337E0,-8.806139946E0,1.053607406E1
1.620588920E0,4.053951263E0,-3.786578894E0,-8.751075745E0,1.036117885E1
1.622992722E0,3.922275782E0,-3.654903412E0,-8.628976822E0,1.015882903E1
1.625396003E0,3.814541101E0,-3.542380571E0,-8.432661057E0,9.910043210E0
1.627799805E0,3.771447420E0,-3.427463770E0,-8.186069489E0,9.642772278E0
1.630203868E0,3.757082701E0,-3.319729567E0,-7.961023808E0,9.408197217E0
1.632608295E0,3.759476900E0,-3.283818007E0,-7.807801247E0,9.267086250E0
1.635012149E0,3.781023741E0,-3.250300646E0,-7.671337605E0,9.149317759E0
1.637415586E0,3.876787901E0,-3.228753805E0,-7.604302883E0,9.125774373E0
1.639819961E0,3.953398943E0,-3.200024605E0,-7.537268162E0,9.092850599E0
1.642223920E0,4.025222301E0,-3.202418566E0,-7.570785522E0,9.152851614E0
1.644627461E0,4.063527584E0,-3.188054085E0,-7.707249165E0,9.277803348E0
1.647031368E0,4.073104382E0,-3.171295404E0,-7.901171207E0,9.437997685E0
1.649435326E0,4.058739662E0,-3.137778044E0,-8.145369530E0,9.626321388E0
1.651839493E0,4.015645504E0,-3.121019363E0,-8.394355774E0,9.814855044E0
1.654243347E0,3.972551584E0,-3.101866484E0,-8.593066216E0,9.962104635E0
1.656647097E0,3.869605303E0,-3.089895964E0,-8.791775703E0,1.009042230E1
1.659051889E0,3.761870861E0,-3.046802282E0,-8.925845146E0,1.015408234E1
1.661456107E0,3.651742458E0,-3.022861242E0,-9.052733421E0,1.021885001E1
1.663859857E0,3.567948818E0,-2.955826521E0,-9.172436714E0,1.027622326E1
1.666264024E0,3.474579096E0,-2.917520761E0,-9.196377754E0,1.025465704E1
1.668668034E0,3.431485415E0,-2.848092079E0,-9.150891304E0,1.017966268E1
1.671072878E0,3.426697254E0,-2.769086838E0,-9.052733421E0,1.006787358E1
1.673477722E0,3.409938335E0,-2.680505037E0,-8.940210342E0,9.936807720E0
1.675882149E0,3.405150175E0,-2.639805317E0,-8.748682022E0,9.752079622E0
1.678287097E0,3.414726734E0,-2.577558756E0,-8.576307297E0,9.584216956E0
1.680691472E0,3.371632814E0,-2.503341913E0,-8.480543137E0,9.463310227E0
1.683095586E0,3.328539133E0,-2.431518793E0,-8.391962051E0,9.349678255E0
1.685500274E0,3.311780453E0,-2.388425112E0,-8.267468452E0,9.220818776E0
1.687904909E0,3.239957333E0,-2.347725391E0,-8.174098969E0,9.100825895E0
1.690309857E0,3.170528650E0,-2.314208031E0,-8.097487450E0,8.998728451E0
1.692714232E0,3.163346052E0,-2.247173309E0,-8.040028572E0,8.927407550E0
1.695118295E0,3.158558130E0,-2.230414629E0,-7.982570648E0,8.869761724E0
1.697523295E0,3.194469690E0,-2.199291229E0,-8.006511688E0,8.896389601E0
1.699927774E0,3.247139692E0,-2.153803349E0,-8.044816971E0,8.938784321E0
1.702331836E0,3.328539133E0,-2.117892027E0,-8.150157928E0,9.054817152E0
1.704736316E0,3.362056494E0,-2.110709667E0,-8.308168411E0,9.207832618E0
1.707140691E0,3.385997534E0,-2.115497828E0,-8.518848419E0,9.408033203E0
1.709545274E0,3.381209135E0,-2.089162588E0,-8.724740982E0,9.587402189E0
1.711949389E0,3.335721493E0,-2.072404146E0,-8.930633545E0,9.755927036E0
1.714352982E0,3.266292334E0,-2.093950987E0,-9.081461906E0,9.875537793E0
1.716757566E0,3.180104971E0,-2.072404146E0,-9.198773384E0,9.951148594E0
1.719161784E0,3.093917370E0,-2.036492586E0,-9.275383949E0,9.987611033E0
1.721565534E0,3.072370529E0,-2.014945745E0,-9.311295509E0,1.000997957E1
1.723970014E0,3.029276609E0,-1.955093026E0,-9.277777672E0,9.953695999E0
1.726374545E0,3.022094488E0,-1.923969865E0,-9.229896545E0,9.900793169E0
1.728779389E0,3.043641329E0,-1.880875945E0,-9.246655464E0,9.914740750E0
1.731183451E0,3.117858410E0,-1.856934905E0,-9.325659752E0,1.000685656E1
1.733587097E0,3.175316572E0,-1.809053063E0,-9.462122917E0,1.014332679E1
1.735991941E0,3.263898373E0,-1.789900184E0,-9.703927040E0,1.039341018E1
1.738396159E0,3.369238615E0,-1.734835982E0,-9.972065926E0,1.066787343E1
1.740799597E0,3.488943577E0,-1.665407062E0,-1.027372265E1,1.097705266E1
1.743203659E0,3.567948818E0,-1.600766420E0,-1.055862141E1,1.125953809E1
1.745608034E0,3.584707737E0,-1.521761179E0,-1.069747829E1,1.138428428E1
1.748012722E0,3.570343256E0,-1.473879218E0,-1.073817825E1,1.141175460E1
1.750416889E0,3.500914097E0,-1.406844497E0,-1.067114353E1,1.131852089E1
1.752820586E0,3.371632814E0,-1.402056217E0,-1.050594997E1,1.112243923E1
1.755225222E0,3.227986813E0,-1.385297537E0,-1.022105312E1,1.080781546E1
1.757629545E0,3.053217649E0,-1.397268057E0,-9.883484840E0,1.043828380E1
1.760033451E0,2.923936367E0,-1.361356616E0,-9.474094391E0,1.000805477E1
1.762437722E0,2.804231405E0,-1.356568336E0,-9.067096710E0,9.587295457E0
1.764841993E0,2.689314604E0,-1.318262815E0,-8.672071457E0,9.174696357E0
1.767246784E0,2.624674082E0,-1.284745455E0,-8.341685295E0,8.838732855E0
1.769651368E0,2.605521202E0,-1.217710733E0,-8.035240173E0,8.534438752E0
1.772055534E0,2.595944881E0,-1.188981414E0,-7.850894928E0,8.353990531E0
1.774460378E0,2.622279882E0,-1.203346133E0,-7.769495487E0,8.287910100E0
1.776864961E0,2.648615122E0,-1.200951934E0,-7.776678085E0,8.302660396E0
1.779269232E0,2.677344084E0,-1.236863494E0,-7.893988609E0,8.426924635E0
1.781673972E0,2.713255644E0,-1.265592575E0,-8.066364288E0,8.604052161E0
1.784078555E0,2.797049284E0,-1.320656896E0,-8.279438972E0,8.838366876E0
1.786483659E0,2.849719524E0,-1.361356616E0,-8.492512703E0,9.060737565E0
1.788888243E0,2.904783726E0,-1.406844497E0,-8.664889336E0,9.246474308E0
1.791292149E0,2.979000568E0,-1.459514618E0,-8.753470421E0,9.360976002E0
1.793696576E0,3.024488688E0,-1.552884459E0,-8.830080986E0,9.461993035E0
1.796100586E0,3.043641329E0,-1.619919181E0,-8.894721985E0,9.539600090E0
1.798504441E0,3.012518167E0,-1.698924422E0,-8.916269302E0,9.563548932E0
1.800908555E0,2.950271368E0,-1.775535703E0,-8.956969261E0,9.596037022E0
1.803312461E0,2.883236647E0,-1.816235304E0,-8.952179909E0,9.578793732E0
1.805716889E0,2.840142965E0,-1.876087785E0,-8.832474709E0,9.465660406E0
1.808121159E0,2.856901646E0,-1.933546185E0,-8.664889336E0,9.326349504E0
1.810524857E0,2.866477966E0,-2.019733667E0,-8.566730499E0,9.256613391E0
1.812929076E0,2.842537165E0,-2.093950987E0,-8.533212662E0,9.234736953E0
1.815333034E0,2.804231405E0,-2.189714909E0,-8.566730499E0,9.276175753E0
1.817736784E0,2.768319845E0,-2.249567270E0,-8.576307297E0,9.288551799E0
1.820140899E0,2.689314604E0,-2.304631472E0,-8.523636818E0,9.230174639E0
1.822545066E0,2.607915401E0,-2.371666431E0,-8.456602097E0,9.161885364E0
1.824949753E0,2.557639122E0,-2.390819073E0,-8.322532654E0,9.028958051E0
1.827354024E0,2.492998600E0,-2.390819073E0,-8.126216888E0,8.829861764E0
1.829757878E0,2.449904919E0,-2.421942234E0,-7.917929649E0,8.634897117E0
1.832162566E0,2.382870197E0,-2.457853794E0,-7.956235409E0,8.661454701E0
1.834567045E0,2.291894436E0,-2.548829556E0,-8.200433731E0,8.887993339E0
1.836971055E0,2.215283155E0,-2.620652676E0,-8.372808456E0,9.048713796E0
1.839375118E0,2.176977634E0,-2.714022636E0,-8.449419975E0,9.137715711E0
1.841778920E0,2.141066074E0,-2.764298677E0,-8.530818939E0,9.219565222E0
1.844182982E0,2.102760315E0,-2.845697880E0,-8.700799942E0,9.392737460E0
1.846586680E0,2.062060833E0,-2.898368120E0,-8.911480904E0,9.595161517E0
1.848990222E0,2.026149511E0,-2.939067841E0,-9.170042992E0,9.840380586E0
1.851394545E0,2.052484512E0,-2.974979401E0,-9.371148109E0,1.004398387E1
1.853798503E0,2.093184233E0,-2.986949921E0,-9.553098679E0,1.022570215E1
1.856202357E0,2.141066074E0,-2.977373362E0,-9.639286995E0,1.031332972E1
1.858606680E0,2.253588676E0,-2.953432322E0,-9.730261803E0,1.041534537E1
1.861010847E0,2.315835476E0,-2.955826521E0,-9.747020721E0,1.044530599E1
1.863415274E0,2.459481239E0,-2.955826521E0,-9.794902802E0,1.052264602E1
1.865819076E0,2.552851200E0,-2.953432322E0,-9.823632240E0,1.057088275E1
1.868222514E0,2.648615122E0,-2.972584963E0,-9.938549042E0,1.070636168E1
1.870627045E0,2.768319845E0,-2.991737843E0,-1.007022381E1,1.086386200E1
1.873030795E0,2.921542406E0,-3.010890722E0,-1.014923000E1,1.098215565E1
1.875433972E0,3.074764729E0,-3.018073082E0,-1.015880585E1,1.103468529E1
1.877837670E0,3.196863651E0,-3.027649403E0,-1.012289524E1,1.103900386E1
1.880241420E0,3.326144934E0,-3.034831762E0,-1.008219528E1,1.104192491E1
1.882645534E0,3.462608576E0,-3.020467043E0,-9.991219521E0,1.099715176E1
1.885049493E0,3.560766697E0,-3.013284922E0,-9.873908043E0,1.092030245E1
1.887453243E0,3.663712978E0,-2.986949921E0,-9.749415398E0,1.083493254E1
1.889858034E0,3.776235580E0,-2.991737843E0,-9.620134354E0,1.075906295E1
1.892262305E0,3.867211580E0,-2.974979401E0,-9.495640755E0,1.067581478E1
1.894665586E0,3.941428423E0,-2.955826521E0,-9.375936508E0,1.059150385E1
1.897069441E0,4.008463383E0,-2.948644161E0,-9.241866112E0,1.049639797E1
1.899473347E0,4.073104382E0,-2.924703121E0,-9.114978790E0,1.040321614E1
1.901877566E0,4.097044945E0,-2.936673641E0,-9.007245064E0,1.032183574E1
1.904281316E0,4.149714947E0,-2.922309160E0,-8.837264061E0,1.019103827E1
1.906684493E0,4.221538067E0,-2.910338640E0,-8.628976822E0,1.003746460E1
1.909088711E0,4.283784866E0,-2.898368120E0,-8.444631577E0,9.902684131E0
1.911492670E0,4.350819588E0,-2.929491282E0,-8.231556892E0,9.760639279E0
1.913896211E0,4.439401150E0,-2.948644161E0,-8.025664330E0,9.634006066E0
1.916300014E0,4.537559032E0,-2.977373362E0,-7.848501205E0,9.542178225E0
1.918703503E0,4.618958473E0,-3.030043602E0,-7.673731804E0,9.455268447E0
1.921107566E0,4.743451595E0,-3.063560724E0,-7.501356602E0,9.389147364E0
1.923511368E0,4.872733116E0,-3.106654644E0,-7.297858238E0,9.308789715E0
1.925915066E0,5.002014160E0,-3.156930923E0,-7.168577194E0,9.293807482E0
1.928319701E0,5.109748840E0,-3.202418566E0,-7.041689396E0,9.270944258E0
1.930723555E0,5.193542004E0,-3.255088806E0,-6.945925713E0,9.263604357E0
1.933126993E0,5.262970924E0,-3.283818007E0,-6.859738350E0,9.248693631E0
1.935530951E0,5.313247204E0,-3.336488008E0,-6.823826790E0,9.269701189E0
1.937934701E0,5.380281925E0,-3.377187729E0,-6.842979431E0,9.336980135E0
1.940338659E0,5.452105045E0,-3.403522730E0,-6.912408352E0,9.438792593E0
1.942742305E0,5.509562969E0,-3.444222689E0,-6.957896233E0,9.519993384E0
1.945145743E0,5.567021847E0,-3.451404810E0,-7.039295673E0,9.615384079E0
1.947550014E0,5.631662369E0,-3.449010849E0,-7.154211998E0,9.736223405E0
1.949954024E0,5.648421288E0,-3.429857969E0,-7.206882477E0,9.777921239E0
1.952357409E0,5.655602932E0,-3.460981369E0,-7.249976158E0,9.824784519E0
1.954761107E0,5.650815010E0,-3.468163490E0,-7.317011356E0,9.874134061E0
1.957164909E0,5.634056568E0,-3.453799009E0,-7.348134041E0,9.882630970E0
1.959569180E0,5.638844490E0,-3.472951889E0,-7.407986641E0,9.936610492E0
1.961972982E0,5.648421288E0,-3.465769529E0,-7.498962402E0,1.000753009E1
1.964376316E0,5.705879211E0,-3.494498491E0,-7.635426044E0,1.015225631E1
1.966780691E0,5.794461250E0,-3.499286890E0,-7.786254406E0,1.031729362E1
1.969184597E0,5.954865456E0,-3.518439531E0,-7.913141727E0,1.050988351E1
1.971587774E0,6.134423256E0,-3.499286890E0,-8.035240173E0,1.069772135E1
1.973991368E0,6.306797981E0,-3.508863211E0,-8.131004333E0,1.087203078E1
1.976395222E0,6.486355782E0,-3.492104530E0,-8.174098969E0,1.100379477E1
1.978799493E0,6.709006786E0,-3.496892929E0,-8.166915894E0,1.113272417E1
1.981203451E0,6.919687748E0,-3.496892929E0,-8.097487450E0,1.121069318E1
1.983606889E0,7.108821392E0,-3.472951889E0,-7.975388050E0,1.123403538E1
1.986011055E0,7.338654518E0,-3.487316370E0,-7.822165966E0,1.127845317E1
1.988414857E0,7.551729679E0,-3.487316370E0,-7.604302883E0,1.127011175E1
1.990818243E0,7.764804363E0,-3.477740049E0,-7.305040836E0,1.121385234E1
1.993221784E0,7.982667446E0,-3.441828489E0,-7.029719353E0,1.117971901E1
1.995625222E0,8.202923775E0,-3.398734808E0,-6.809462070E0,1.118964389E1
1.998029284E0,8.382481575E0,-3.365217209E0,-6.615540028E0,1.119625179E1
2.000433295E0,8.624285698E0,-3.291000366E0,-6.445559025E0,1.125851759E1
2.002836732E0,8.868483543E0,-3.235936165E0,-6.258819580E0,1.132669880E1
2.005240743E0,9.088740349E0,-3.168901443E0,-6.127144337E0,1.141004098E1
2.007644493E0,9.320967674E0,-3.121019363E0,-6.043350697E0,1.153877324E1
2.010047878E0,9.522072792E0,-3.046802282E0,-5.973921776E0,1.164648513E1
2.012451628E0,9.682476997E0,-2.965402842E0,-5.885340214E0,1.171243801E1
2.014855639E0,9.811758995E0,-2.941461802E0,-5.787182331E0,1.176496032E1
2.017260326E0,9.806969643E0,-2.874427080E0,-5.710570812E0,1.170681868E1
2.019664441E0,9.780634880E0,-2.840909719E0,-5.669871330E0,1.165671599E1
2.022068191E0,9.615441322E0,-2.816968918E0,-5.626777172E0,1.149141623E1
2.024472826E0,9.397578239E0,-2.785845280E0,-5.554954052E0,1.126645131E1
2.026876993E0,9.148592949E0,-2.749933958E0,-5.497496128E0,1.102185798E1
2.029280795E0,8.832571983E0,-2.749933958E0,-5.480737209E0,1.075243902E1
2.031685118E0,8.497397423E0,-2.752328157E0,-5.478343010E0,1.047823055E1
2.034089180E0,8.169406891E0,-2.802603960E0,-5.504678249E0,1.024183970E1
2.036493816E0,7.865356922E0,-2.855274439E0,-5.562136650E0,1.004757661E1
2.038898034E0,7.578064442E0,-2.953432322E0,-5.643536091E0,9.899460731E0
2.041301576E0,7.333866596E0,-3.080319643E0,-5.815911293E0,9.853871956E0
2.043705951E0,7.116003513E0,-3.207206726E0,-6.007439137E0,9.849518057E0
2.046110118E0,6.943628788E0,-3.386764288E0,-6.285154819E0,9.959283317E0
2.048513711E0,6.807164669E0,-3.580686331E0,-6.620327950E0,1.014827806E1
2.050917826E0,6.737736225E0,-3.750667334E0,-6.972260475E0,1.039600938E1
2.053321941E0,6.701824665E0,-3.913465977E0,-7.336163521E0,1.067937100E1
2.055726107E0,6.704218864E0,-4.059505939E0,-7.688096046E0,1.097875038E1
2.058129857E0,6.725765705E0,-4.193575382E0,-8.011299133E0,1.126955690E1
2.060533191E0,6.752100468E0,-4.277369022E0,-8.358444214E0,1.156504804E1
2.062937305E0,6.811953068E0,-4.356373787E0,-8.652917862E0,1.184287485E1
2.065341003E0,6.761677265E0,-4.404255867E0,-8.882752419E0,1.200087662E1
2.067744336E0,6.706612587E0,-4.382709026E0,-9.091037750E0,1.211749802E1
2.070148243E0,6.634789467E0,-4.308491707E0,-9.196377754E0,1.213082420E1
2.072552149E0,6.488749504E0,-4.169634342E0,-9.270595551E0,1.205958799E1
2.074956368E0,6.270886421E0,-4.033170700E0,-9.222714424E0,1.185955074E1
2.077360378E0,6.043447018E0,-3.891919136E0,-9.086250305E0,1.158577710E1
2.079764076E0,5.792067051E0,-3.707573652E0,-8.923451424E0,1.126597215E1
2.082168243E0,5.535898209E0,-3.539986610E0,-8.712770462E0,1.091283846E1
2.084571836E0,5.282123566E0,-3.417887688E0,-8.475754738E0,1.055562428E1
2.086975014E0,5.059472561E0,-3.271847486E0,-8.183674812E0,1.016246929E1
2.089378555E0,4.863156796E0,-3.178477526E0,-7.949053288E0,9.845834732E0
2.091782305E0,4.743451595E0,-3.154536486E0,-7.755131245E0,9.622551330E0
2.094186784E0,4.599805832E0,-3.106654644E0,-7.611485004E0,9.420415104E0
2.096590378E0,4.484889030E0,-3.135383844E0,-7.577967644E0,9.347216435E0
2.098993503E0,4.398701668E0,-3.159324884E0,-7.597120762E0,9.329852837E0
2.101397670E0,4.312514305E0,-3.161719084E0,-7.697672844E0,9.372748498E0
2.103801576E0,4.269420147E0,-3.192842245E0,-7.870047569E0,9.505779228E0
2.106205118E0,4.238296509E0,-3.243118286E0,-8.042423248E0,9.652022856E0
2.108609024E0,4.199991226E0,-3.288606167E0,-8.248315811E0,9.822910492E0
2.111012774E0,4.197597027E0,-3.338882208E0,-8.449419975E0,1.000802943E1
2.113416941E0,4.144927025E0,-3.372399569E0,-8.660099983E0,1.017599286E1
2.115820743E0,4.140138626E0,-3.425069809E0,-8.918663025E0,1.041222364E1
2.118224232E0,4.111409664E0,-3.429857969E0,-9.210742950E0,1.065389135E1
2.120628295E0,4.125774384E0,-3.408311129E0,-9.373541832E0,1.079360392E1
2.123031993E0,4.118592262E0,-3.408311129E0,-9.402271271E0,1.081582600E1
2.125435534E0,4.063527584E0,-3.379581928E0,-9.320872307E0,1.071505908E1
2.127839336E0,4.006069183E0,-3.331700087E0,-9.117373466E0,1.050120539E1
2.130242982E0,3.860028982E0,-3.300576687E0,-8.854022026E0,1.020721981E1
2.132647461E0,3.658924580E0,-3.243118286E0,-8.588276863E0,9.882512068E0
2.135051784E0,3.460214376E0,-3.238330126E0,-8.315350533E0,9.571045921E0
2.137455482E0,3.237563372E0,-3.197630405E0,-8.080728531E0,9.273878929E0
2.139859857E0,3.079552889E0,-3.147354364E0,-7.862865448E0,9.011888733E0
2.142264076E0,2.878448486E0,-3.085107803E0,-7.676125526E0,8.759352656E0
2.144667722E0,2.761137724E0,-3.037225723E0,-7.556421280E0,8.599309518E0
2.147071472E0,2.670161963E0,-2.982161522E0,-7.486992359E0,8.489882616E0
2.149475430E0,2.624674082E0,-2.951038361E0,-7.475021839E0,8.454199722E0
2.151880118E0,2.619885921E0,-2.915126801E0,-7.546844482E0,8.503918400E0
2.154284597E0,2.615097761E0,-2.888791561E0,-7.661761284E0,8.595722131E0
2.156688399E0,2.598338842E0,-2.848092079E0,-7.841318607E0,8.737806975E0
2.159092618E0,2.591156721E0,-2.852880239E0,-8.083122253E0,8.954880467E0
2.161496316E0,2.555245161E0,-2.869638920E0,-8.339291573E0,9.181932765E0
2.163900066E0,2.507363081E0,-2.874427080E0,-8.480543137E0,9.298860820E0
2.166304493E0,2.466663361E0,-2.872033119E0,-8.619400978E0,9.414195430E0
2.168708555E0,2.442722559E0,-2.884003639E0,-9.009638786E0,9.770259032E0
2.171112722E0,2.464269400E0,-2.814574480E0,-8.497302055E0,9.284319867E0
2.173516628E0,2.488210440E0,-2.797815800E0,-9.328054428E0,1.005144586E1
2.175920118E0,2.526515961E0,-2.785845280E0,-7.992146969E0,8.832815519E0
2.178324389E0,2.672555923E0,-2.699657917E0,-9.742233276E0,1.045666377E1
2.180728399E0,2.722832203E0,-2.714022636E0,-8.609824181E0,9.429146647E0
2.183132045E0,2.876054525E0,-2.646987915E0,-9.359177589E0,1.014260518E1
2.185536211E0,2.981394768E0,-2.608682156E0,-1.008458900E1,1.083479916E1
2.187940378E0,3.048429489E0,-2.575164795E0,-9.351995468E0,1.016780288E1
2.190344701E0,3.184893131E0,-2.488977432E0,-1.114756870E1,1.185777555E1
2.192748503E0,3.180104971E0,-2.493765354E0,-1.017795944E1,1.095092652E1
2.195152045E0,3.211228132E0,-2.395607233E0,-1.106616974E1,1.176907103E1
2.197556420E0,3.144193411E0,-2.354907513E0,-1.146837807E1,1.212250952E1
2.199960222E0,3.072370529E0,-2.323784351E0,-1.042933941E1,1.111802837E1
2.202363711E0,2.986182928E0,-2.259143829E0,-1.181791687E1,1.239694230E1
2.204767826E0,2.744378805E0,-2.297449350E0,-1.015641212E1,1.076859303E1
2.207172149E0,2.627068281E0,-2.259143829E0,-1.072620773E1,1.127194530E1
2.209576732E0,2.442722559E0,-2.271114349E0,-1.035033417E1,1.087447798E1
2.211980847E0,2.323017597E0,-2.280690670E0,-9.014427185E0,9.584250527E0
2.214384545E0,2.289500237E0,-2.211261749E0,-1.009177113E1,1.058183984E1
2.216788972E0,2.186553955E0,-2.228020430E0,-8.202827454E0,8.776757457E0
2.219193034E0,2.270347357E0,-2.144227028E0,-9.009638786E0,9.535500916E0
2.221596732E0,2.296682358E0,-2.141832829E0,-8.672071457E0,9.223178469E0
2.224001055E0,2.437934399E0,-2.084374666E0,-7.838924408E0,8.469762556E0
2.226405274E0,2.660585403E0,-1.988610506E0,-9.311295509E0,9.886026021E0
2.228809857E0,2.809019566E0,-1.995792747E0,-7.812589645E0,8.538754978E0
2.231214076E0,3.081946850E0,-1.880875945E0,-9.232290268E0,9.913186889E0
2.233617774E0,3.237563372E0,-1.892846465E0,-9.083856583E0,9.827570134E0
2.236021993E0,3.450638056E0,-1.866511464E0,-8.724740982E0,9.566183839E0
2.238425847E0,3.646954060E0,-1.830599904E0,-1.032399940E1,1.110118614E1
2.240829389E0,3.721171141E0,-1.871299624E0,-8.810929298E0,9.745837678E0
2.243233139E0,3.895940542E0,-1.825811744E0,-1.027851105E1,1.114269853E1
2.245636628E0,3.888757944E0,-1.852146864E0,-9.665621758E0,1.058192470E1
2.248040639E0,3.922275782E0,-1.832994103E0,-9.167649269E0,1.013853578E1
2.250444441E0,3.946216822E0,-1.799476743E0,-1.035033417E1,1.122230641E1
2.252847670E0,3.840876341E0,-1.864117384E0,-8.530818939E0,9.539503994E0
2.255251576E0,3.862423182E0,-1.799476743E0,-9.945731163E0,1.082007383E1
2.257655222E0,3.749900341E0,-1.835388064E0,-9.079068184E0,9.992991594E0
2.260058503E0,3.682865620E0,-1.797082543E0,-8.753470421E0,9.665208184E0
2.262462149E0,3.587101698E0,-1.761171103E0,-9.842784882E0,1.062306154E1
2.264865847E0,3.445849895E0,-1.768353343E0,-8.174098969E0,9.045266662E0
2.267269961E0,3.381209135E0,-1.677377582E0,-9.672803879E0,1.038312601E1
2.269673399E0,3.275868893E0,-1.744412303E0,-9.328054428E0,1.003926744E1
2.272076420E0,3.189681530E0,-1.643860221E0,-8.480543137E0,9.208472000E0
2.274480534E0,3.103493929E0,-1.677377582E0,-8.731923103E0,9.417629808E0
2.276884493E0,3.050823689E0,-1.674983501E0,-8.842052460E0,9.502367421E0
2.279287982E0,3.017306089E0,-1.706106782E0,-8.633765221E0,9.303592762E0
2.281691889E0,2.983788967E0,-1.744412303E0,-8.731923103E0,9.391083642E0
2.284095847E0,2.955059767E0,-1.744412303E0,-8.578701019E0,9.239559713E0
2.286500014E0,2.988577127E0,-1.792294383E0,-8.657706261E0,9.332726831E0
2.288903868E0,2.955059767E0,-1.849752665E0,-8.734316826E0,9.404374172E0
2.291307670E0,2.969424248E0,-1.888058305E0,-8.806139946E0,9.483161144E0
2.293712357E0,2.967030048E0,-1.904816985E0,-8.868387222E0,9.543578311E0
2.296116576E0,2.964636087E0,-1.969457746E0,-8.868387222E0,9.555946990E0
2.298520222E0,2.976606607E0,-2.019733667E0,-8.827687263E0,9.532448448E0
2.300924024E0,2.998153448E0,-2.081980467E0,-8.688830376E0,9.424401310E0
2.303327826E0,2.959847927E0,-2.132256508E0,-8.624189377E0,9.363966039E0
2.305732097E0,2.897601366E0,-2.242385149E0,-8.614612579E0,9.361406664E0
2.308136211E0,2.811413765E0,-2.338149071E0,-8.633765221E0,9.376187409E0
2.310540274E0,2.780290365E0,-2.436307192E0,-8.696012497E0,9.449139675E0
2.312944701E0,2.797049284E0,-2.544041634E0,-8.758257866E0,9.539534233E0
2.315348295E0,2.883236647E0,-2.666140556E0,-8.870780945E0,9.701139809E0
2.317751628E0,3.022094488E0,-2.766692638E0,-9.086250305E0,9.967326013E0
2.320155326E0,3.206440210E0,-2.876821280E0,-9.316082954E0,1.026385703E1
2.322558972E0,3.436273336E0,-2.931885481E0,-9.521976471E0,1.053906840E1
2.324962982E0,3.673289299E0,-2.970191002E0,-9.651257515E0,1.074531807E1
2.327366628E0,3.886364222E0,-2.963008881E0,-9.758992195E0,1.091426485E1
2.329770066E0,4.041980743E0,-2.960614681E0,-9.873908043E0,1.107234879E1
2.332174441E0,4.195203304E0,-2.917520761E0,-9.909820557E0,1.114971756E1
2.334578503E0,4.262237549E0,-2.898368120E0,-9.881091118E0,1.114464752E1
2.336982149E0,4.307725430E0,-2.843303919E0,-9.790115356E0,1.106739510E1
2.339386107E0,4.274208069E0,-2.795421839E0,-9.737444878E0,1.099550229E1
2.341790118E0,4.199991226E0,-2.764298677E0,-9.737444878E0,1.095897378E1
2.344194441E0,4.147321224E0,-2.721204758E0,-9.711110115E0,1.090462692E1
2.346598191E0,4.140138626E0,-2.668534517E0,-9.536339760E0,1.073329401E1
2.349001107E0,4.188020706E0,-2.625440836E0,-9.373541832E0,1.059696860E1
2.351404961E0,4.223932266E0,-2.599105835E0,-9.153285027E0,1.041055146E1
2.353808868E0,4.314908028E0,-2.587135315E0,-8.956969261E0,1.027321755E1
2.356212566E0,4.437006950E0,-2.589529276E0,-8.712770462E0,1.011459647E1
2.358616680E0,4.566287994E0,-2.582347155E0,-8.432661057E0,9.931227284E0
2.361020795E0,4.729087353E0,-2.599105835E0,-8.207615852E0,9.822656276E0
2.363425170E0,4.870338917E0,-2.627834797E0,-7.961023808E0,9.695546243E0
2.365829284E0,4.980467796E0,-2.627834797E0,-7.728796005E0,9.562680737E0
2.368232774E0,5.090596199E0,-2.642199516E0,-7.537268162E0,9.471314549E0
2.370637045E0,5.174389839E0,-2.666140556E0,-7.326587677E0,9.357430345E0
2.373040951E0,5.203118801E0,-2.680505037E0,-7.202094078E0,9.280501690E0
2.375444336E0,5.219877243E0,-2.687687397E0,-7.111118793E0,9.221648034E0
2.377848243E0,5.241424084E0,-2.723598719E0,-7.077600956E0,9.218619837E0
2.380251993E0,5.231847763E0,-2.764298677E0,-7.075207233E0,9.223455729E0
2.382656107E0,5.227059841E0,-2.802603960E0,-7.125483036E0,9.270881945E0
2.385060118E0,5.205512524E0,-2.845697880E0,-7.211670399E0,9.338283943E0
2.387463764E0,5.210300922E0,-2.864850760E0,-7.331375599E0,9.439474231E0
2.389867930E0,5.229453564E0,-2.895974159E0,-7.419957161E0,9.528358472E0
2.392271889E0,5.289306164E0,-2.912732601E0,-7.482203484E0,9.614787562E0
2.394675586E0,5.313247204E0,-2.941461802E0,-7.575573444E0,9.709382390E0
2.397079389E0,5.349158764E0,-2.974979401E0,-7.645002842E0,9.793368694E0
2.399483086E0,5.409011364E0,-2.972584963E0,-7.728796005E0,9.890801433E0
2.401887253E0,5.471257687E0,-3.010890722E0,-7.786254406E0,9.981276536E0
2.404290847E0,5.545474529E0,-3.015678883E0,-7.870047569E0,1.008881835E1
2.406693920E0,5.631662369E0,-3.042014122E0,-7.958629608E0,1.021319030E1
2.409097982E0,5.746579170E0,-3.058772802E0,-8.066364288E0,1.036559193E1
2.411501836E0,5.842343330E0,-3.063560724E0,-8.162128448E0,1.049469965E1
2.413905274E0,5.974018574E0,-3.077925682E0,-8.221980095E0,1.061901507E1
2.416308920E0,6.036265373E0,-3.063560724E0,-8.281832695E0,1.069629173E1
2.418712097E0,6.134423256E0,-3.101866484E0,-8.265073776E0,1.075007762E1
2.421115847E0,6.244551659E0,-3.101866484E0,-8.073545456E0,1.066762098E1
2.423519753E0,6.361862659E0,-3.121019363E0,-7.719219685E0,1.047856912E1
2.425923347E0,6.471991062E0,-3.154536486E0,-7.226035118E0,1.020065450E1
2.428327409E0,6.553390026E0,-3.188054085E0,-6.747215748E0,9.931542178E0
2.430731264E0,6.546208382E0,-3.245512247E0,-6.459923744E0,9.752784664E0
2.433135014E0,6.519873142E0,-3.281423807E0,-6.428800583E0,9.726559768E0
2.435538920E0,6.531843662E0,-3.288606167E0,-6.471894264E0,9.765517268E0
2.437943034E0,6.661124706E0,-3.276635647E0,-6.445559025E0,9.831182770E0
2.440347670E0,6.888564110E0,-3.221571207E0,-6.330642223E0,9.894840448E0
2.442751889E0,7.130368233E0,-3.178477526E0,-6.163055420E0,9.946261741E0
2.445156107E0,7.369778156E0,-3.123413324E0,-6.048138618E0,1.003241355E1
2.447561368E0,7.575670719E0,-3.082713604E0,-5.978709698E0,1.013108482E1
2.449966159E0,7.731287003E0,-3.080319643E0,-5.904492855E0,1.020412680E1
2.452370326E0,7.812685966E0,-3.089895964E0,-5.911674976E0,1.027294603E1
2.454774753E0,7.779168606E0,-3.123413324E0,-5.926039696E0,1.026592039E1
2.457178972E0,7.728892803E0,-3.152142525E0,-5.949980736E0,1.025056375E1
2.459583816E0,7.635523319E0,-3.197630405E0,-5.957163334E0,1.019871813E1
2.461988399E0,7.587641239E0,-3.233541727E0,-5.971527576E0,1.018269283E1
2.464392514E0,7.496665001E0,-3.281423807E0,-5.966739178E0,1.012767025E1
2.466797409E0,7.472723961E0,-3.343670607E0,-5.990680218E0,1.014445592E1
2.469201889E0,7.441601276E0,-3.410705328E0,-5.995468616E0,1.014672284E1
2.471606211E0,7.396112919E0,-3.492104530E0,-5.995468616E0,1.014115005E1
2.474010743E0,7.331472874E0,-3.597444773E0,-6.028985977E0,1.015090022E1
2.476414857E0,7.223738194E0,-3.702785254E0,-6.084050179E0,1.014439149E1
2.478819441E0,7.135156155E0,-3.844037056E0,-6.146296501E0,1.017172723E1
2.481223764E0,7.044180870E0,-3.963742018E0,-6.210937500E0,1.019350183E1
2.483627618E0,6.902928829E0,-4.097811222E0,-6.294731140E0,1.020128048E1
2.486032305E0,6.857440472E0,-4.224698544E0,-6.400071144E0,1.028753995E1
2.488436680E0,6.773647785E0,-4.318068504E0,-6.493441105E0,1.032922056E1
2.490840795E0,6.728159428E0,-4.428196907E0,-6.617934227E0,1.042468755E1
2.493245014E0,6.644366264E0,-4.483261108E0,-6.735245228E0,1.046951582E1
2.495649284E0,6.562966824E0,-4.535931110E0,-6.845373631E0,1.051219980E1
2.498053972E0,6.448050022E0,-4.509596348E0,-6.967472553E0,1.050997060E1
2.500458139E0,6.352286339E0,-4.435379505E0,-7.084783554E0,1.049848994E1
2.502861784E0,6.194275856E0,-4.320462227E0,-7.170970917E0,1.041433009E1
2.505266107E0,6.036265373E0,-4.174422741E0,-7.199700356E0,1.028095278E1
2.507670274E0,5.866284370E0,-3.994865417E0,-7.185335636E0,1.009956881E1
2.510074232E0,5.715455532E0,-3.834460735E0,-7.106329918E0,9.892898765E0
2.512478868E0,5.550262928E0,-3.671662092E0,-7.015354633E0,9.669628831E0
2.514883295E0,5.409011364E0,-3.520833731E0,-6.914802551E0,9.458761463E0
2.517287670E0,5.282123566E0,-3.386764288E0,-6.787915230E0,9.243743553E0
2.519691576E0,5.160024643E0,-3.252694845E0,-6.672998428E0,9.040729290E0
2.522095066E0,5.064260960E0,-3.147354364E0,-6.522170067E0,8.836927121E0
2.524499284E0,4.963708878E0,-3.080319643E0,-6.412041664E0,8.674160088E0
2.526903243E0,4.884703636E0,-2.998920441E0,-6.397676945E0,8.589768548E0
2.529306680E0,4.791333675E0,-2.934279680E0,-6.414435387E0,8.527124777E0
2.531710534E0,4.719510555E0,-2.888791561E0,-6.419224262E0,8.474982991E0
2.534114545E0,4.674022675E0,-2.857668400E0,-6.481470585E0,8.486590457E0
2.536519128E0,4.640505791E0,-2.864850760E0,-6.570052147E0,8.538574183E0
2.538923347E0,4.592623711E0,-2.879215240E0,-6.725668430E0,8.638095206E0
2.541327461E0,4.585441113E0,-2.893579721E0,-6.912408352E0,8.785241205E0
2.543732357E0,4.599805832E0,-2.936673641E0,-7.147030354E0,8.992347226E0
2.546136784E0,4.638111115E0,-2.951038361E0,-7.403198719E0,9.221065740E0
2.548540899E0,4.681205273E0,-2.970191002E0,-7.692884445E0,9.482414697E0
2.550945430E0,4.748239517E0,-2.989343882E0,-7.951447010E0,9.731776041E0
2.553349857E0,4.832033157E0,-2.982161522E0,-8.195645332E0,9.970478132E0
2.555754441E0,4.889491558E0,-2.960614681E0,-8.401537895E0,1.016160450E1
2.558158503E0,4.937373638E0,-2.910338640E0,-8.521243095E0,1.026933851E1
2.560562097E0,4.899068356E0,-2.862456560E0,-8.619400978E0,1.031933145E1
2.562966732E0,4.844003677E0,-2.800209999E0,-8.684041023E0,1.033044608E1
2.565371055E0,4.733875275E0,-2.745145798E0,-8.705588341E0,1.028263920E1
2.567774961E0,4.571076870E0,-2.666140556E0,-8.633765221E0,1.012644810E1
2.570179597E0,4.434613228E0,-2.606287956E0,-8.482936859E0,9.920622417E0
2.572583972E0,4.307725430E0,-2.565588236E0,-8.310562134E0,9.705884007E0
2.574988243E0,4.183232784E0,-2.512917995E0,-8.099881172E0,9.456334828E0
2.577392357E0,4.085074425E0,-2.493765354E0,-7.903564930E0,9.239753097E0
2.579796159E0,4.008463383E0,-2.460247993E0,-7.745554447E0,9.061689278E0
2.582200534E0,3.974945784E0,-2.433912754E0,-7.645002842E0,8.953780974E0
2.584604441E0,3.939034224E0,-2.407577753E0,-7.604302883E0,8.895945345E0
2.587007982E0,3.907911062E0,-2.398001671E0,-7.606697083E0,8.881667714E0
2.589412045E0,3.883970022E0,-2.369272232E0,-7.594726562E0,8.853165852E0
2.591816368E0,3.845664263E0,-2.364484072E0,-7.618667603E0,8.855733430E0
2.594221003E0,3.769053221E0,-2.340543032E0,-7.685702324E0,8.874340769E0
2.596625118E0,3.658924580E0,-2.309419870E0,-7.788648605E0,8.909780935E0
2.599028659E0,3.541613817E0,-2.280690670E0,-7.812589645E0,8.875873778E0
2.601433607E0,3.395573854E0,-2.280690670E0,-7.867653847E0,8.867437555E0
2.603838347E0,3.268686771E0,-2.275902271E0,-7.941870689E0,8.884669628E0
2.606242253E0,3.170528650E0,-2.256749630E0,-8.006511688E0,8.902213221E0
2.608646316E0,3.105887890E0,-2.239990711E0,-8.147763252E0,9.002785346E0
2.611050274E0,3.055611849E0,-2.218444109E0,-8.260286331E0,9.082432951E0
2.613454649E0,3.072370529E0,-2.158591509E0,-8.329714775E0,9.136910102E0
2.615858607E0,3.120252371E0,-2.132256508E0,-8.427872658E0,9.236424103E0
2.618262409E0,3.163346052E0,-2.108315468E0,-8.573913574E0,9.378898994E0
2.620667149E0,3.242351532E0,-2.055645227E0,-8.746288300E0,9.551757942E0
2.623071420E0,3.290233374E0,-2.024522066E0,-8.909087181E0,9.710620971E0
2.625475118E0,3.328539133E0,-2.000581026E0,-9.057520866E0,9.854957202E0
2.627879336E0,3.295021772E0,-1.952698946E0,-9.167649269E0,9.935592321E0
2.630283503E0,3.261504412E0,-1.979034066E0,-9.215531349E0,9.973966358E0
2.632687878E0,3.168134451E0,-2.000581026E0,-9.220318794E0,9.952571477E0
2.635091524E0,3.014912128E0,-2.041280746E0,-9.220318794E0,9.913163012E0
2.637494805E0,2.820990086E0,-2.067615747E0,-9.275383949E0,9.912909126E0
2.639899076E0,2.598338842E0,-2.079586267E0,-9.316082954E0,9.892696569E0
2.642302982E0,2.385264158E0,-2.086768627E0,-9.330448151E0,9.854001781E0
2.644706576E0,2.174583435E0,-2.091556787E0,-9.337630272E0,9.812989453E0
2.647110482E0,1.963903069E0,-2.089162588E0,-9.373541832E0,9.802285553E0
2.649514389E0,1.793921947E0,-2.048463106E0,-9.411847115E0,9.797817265E0
2.651918711E0,1.647881866E0,-2.022127867E0,-9.488457680E0,9.840495155E0
2.654322461E0,1.544935703E0,-2.012551546E0,-9.579434395E0,9.909730237E0
2.656725795E0,1.494659543E0,-1.969457746E0,-9.737444878E0,1.004642243E1
2.659129701E0,1.554512024E0,-1.909605265E0,-9.919396400E0,1.022044641E1
2.661533347E0,1.702946186E0,-1.859329104E0,-1.012768269E1,1.043681403E1
2.663936680E0,1.911232829E0,-1.765959263E0,-1.036948681E1,1.069100929E1
2.666340430E0,2.232041836E0,-1.677377582E0,-1.066156673E1,1.102109847E1
2.668744441E0,2.615097761E0,-1.610342860E0,-1.101828766E1,1.143829547E1
2.671148920E0,3.046035528E0,-1.524155378E0,-1.140852642E1,1.190612687E1
2.673552930E0,3.515278578E0,-1.411632657E0,-1.185382843E1,1.244440190E1
2.675956576E0,3.946216822E0,-1.335021496E0,-1.223927784E1,1.292883721E1
2.678361159E0,4.379548550E0,-1.277563095E0,-1.255769348E1,1.336069903E1
2.680765274E0,4.743451595E0,-1.210528374E0,-1.275879669E1,1.366574568E1
2.683168868E0,5.076231480E0,-1.150675774E0,-1.286413765E1,1.387725543E1
2.685572878E0,5.325217724E0,-1.100399852E0,-1.280428505E1,1.391109411E1
2.687976732E0,5.509562969E0,-1.086035252E0,-1.262712193E1,1.381951391E1
2.690380951E0,5.669967651E0,-1.057306051E0,-1.233025455E1,1.361255327E1
2.692785066E0,5.765731812E0,-1.057306051E0,-1.188734531E1,1.325407628E1
2.695188711E0,5.823190212E0,-1.071670651E0,-1.140852642E1,1.285350136E1
2.697592878E0,5.818402290E0,-1.081246972E0,-1.082676029E1,1.233862386E1
2.699996628E0,5.813613892E0,-1.131523132E0,-1.024499416E1,1.183378031E1
2.702399909E0,5.722638130E0,-1.169828653E0,-9.648862839E0,1.127907976E1
2.704803503E0,5.593356609E0,-1.224892974E0,-9.074278831E0,1.072979670E1
2.707207253E0,5.387464046E0,-1.323050976E0,-8.573913574E0,1.021211177E1
2.709611576E0,5.126507759E0,-1.418814898E0,-8.166915894E0,9.746416405E0
2.712015430E0,4.781757355E0,-1.536125779E0,-7.884412766E0,9.348200386E0
2.714418711E0,4.437006950E0,-1.703712702E0,-7.716825485E0,9.063060367E0
2.716822930E0,4.063527584E0,-1.832994103E0,-7.645002842E0,8.849756622E0
2.719227149E0,3.716383219E0,-1.928757906E0,-7.671337605E0,8.739624244E0
2.721631420E0,3.376421213E0,-2.019733667E0,-7.735978127E0,8.678991985E0
2.724036472E0,3.055611849E0,-2.108315468E0,-7.810195446E0,8.647595665E0
2.726441576E0,2.842537165E0,-2.182532549E0,-7.886806488E0,8.662862254E0
2.728846576E0,2.615097761E0,-2.235202789E0,-7.987358570E0,8.696709995E0
2.731251003E0,2.488210440E0,-2.321390390E0,-8.097487450E0,8.783470131E0
2.733655170E0,2.344564438E0,-2.409971714E0,-8.162128448E0,8.827530055E0
2.736060222E0,2.301470757E0,-2.536859035E0,-8.210010529E0,8.895880748E0
2.738465066E0,2.224859715E0,-2.654170036E0,-8.260286331E0,8.956949794E0
2.740869389E0,2.119519234E0,-2.793027878E0,-8.322532654E0,9.030942159E0
2.743273920E0,2.021361113E0,-2.900762081E0,-8.499695778E0,9.205712885E0
2.745678451E0,1.884897590E0,-2.979767323E0,-8.707982063E0,9.394722127E0
2.748083295E0,1.753222227E0,-3.018073082E0,-8.906692505E0,9.566176074E0
2.750487409E0,1.619152665E0,-3.058772802E0,-9.093432426E0,9.729761544E0
2.752891264E0,1.611970425E0,-3.073137283E0,-9.210742950E0,9.842784520E0
2.755295795E0,1.671822906E0,-3.106654644E0,-9.225108147E0,9.876685437E0
2.757699545E0,1.858562589E0,-3.161719084E0,-9.182014465E0,9.887371344E0
2.760102826E0,2.129095554E0,-3.257482767E0,-9.162860870E0,9.955011863E0
2.762506680E0,2.447510719E0,-3.370005608E0,-9.184408188E0,1.008467155E1
2.764910378E0,2.780290365E0,-3.506469011E0,-9.323266029E0,1.034159702E1
2.767314649E0,3.093917370E0,-3.583080292E0,-9.466912270E0,1.058457448E1
2.769718347E0,3.448243856E0,-3.669267893E0,-9.581828117E0,1.082429409E1
2.772121472E0,3.802570581E0,-3.762637854E0,-9.644075394E0,1.102838052E1
2.774525534E0,4.226325989E0,-3.839248896E0,-9.663228035E0,1.122406520E1
2.776928920E0,4.662052155E0,-3.899101257E0,-9.677592278E0,1.142775189E1
2.779332097E0,5.081019878E0,-3.978106499E0,-9.770961761E0,1.170955969E1
2.781735951E0,5.480834007E0,-4.047535419E0,-9.960096359E0,1.206754341E1
2.784139701E0,5.837554455E0,-4.093023300E0,-1.012528896E1,1.238351155E1
2.786543764E0,6.213428020E0,-4.057111740E0,-1.019711208E1,1.261142095E1
2.788947409E0,6.627607346E0,-4.028382301E0,-1.004628277E1,1.269176270E1
2.791350430E0,6.969963551E0,-3.970924377E0,-9.758992195E0,1.263275746E1
2.793754284E0,7.218949795E0,-3.877554655E0,-9.430999756E0,1.249369532E1
2.796157878E0,7.350625038E0,-3.788972855E0,-9.093432426E0,1.229140013E1
2.798561107E0,7.369778156E0,-3.709967613E0,-8.856415749E0,1.210427981E1
2.800964961E0,7.297955036E0,-3.587868690E0,-8.602642059E0,1.183800658E1
2.803369128E0,7.166279793E0,-3.470557690E0,-8.303380013E0,1.150419299E1
2.805773607E0,6.981934071E0,-3.319729567E0,-7.963417530E0,1.109882996E1
2.808177514E0,6.718583107E0,-3.156930923E0,-7.568391800E0,1.060123230E1
2.810581055E0,6.397774220E0,-2.998920441E0,-7.206882477E0,1.009277929E1
2.812985118E0,6.076964855E0,-2.850486040E0,-6.864526749E0,9.600859336E0
2.815388607E0,5.787278652E0,-2.690081596E0,-6.531746387E0,9.131968247E0
2.817791732E0,5.516745567E0,-2.551223755E0,-6.256424904E0,8.722733338E0
2.820195586E0,5.291700363E0,-2.441095352E0,-6.009833336E0,8.371328209E0
2.822599493E0,5.109748840E0,-2.352513552E0,-5.847034454E0,8.113671495E0
2.825003711E0,4.973285198E0,-2.302237511E0,-5.813517094E0,7.989420769E0
2.827407722E0,4.834427834E0,-2.271114349E0,-5.849428654E0,7.921203724E0
2.829811420E0,4.702752113E0,-2.254355669E0,-6.000256538E0,7.949910405E0
2.832215951E0,4.611776352E0,-2.206473589E0,-6.165449619E0,8.009355519E0
2.834619961E0,4.523194790E0,-2.172955990E0,-6.400071144E0,8.132769485E0
2.837023764E0,4.429824829E0,-2.175350428E0,-6.740033150E0,8.353654551E0
2.839427618E0,4.353213787E0,-2.134650469E0,-7.111118793E0,8.606695847E0
2.841831264E0,4.326878548E0,-2.137044668E0,-7.479809761E0,8.901482570E0
2.844235430E0,4.293361187E0,-2.113103628E0,-7.824560165E0,9.171799115E0
2.846639076E0,4.322090149E0,-2.086768627E0,-8.109457970E0,9.423288976E0
2.849042566E0,4.377154827E0,-2.046068907E0,-8.336896896E0,9.635856589E0
2.851447045E0,4.475312710E0,-2.031704187E0,-8.502090454E0,9.820477985E0
2.853851003E0,4.580653191E0,-2.036492586E0,-8.655312538E0,1.000220580E1
2.856254493E0,4.736268997E0,-2.053251028E0,-8.889934540E0,1.028003015E1
2.858658503E0,4.937373638E0,-2.041280746E0,-9.119767189E0,1.056951461E1
2.861062566E0,5.160024643E0,-2.067615747E0,-9.373541832E0,1.089789776E1
2.863466941E0,5.358735085E0,-2.079586267E0,-9.579434395E0,1.117167329E1
2.865870847E0,5.622086048E0,-2.070009947E0,-9.713503838E0,1.141249094E1
2.868273868E0,5.835160732E0,-2.070009947E0,-9.723079681E0,1.152702565E1
2.870677566E0,6.076964855E0,-2.062827587E0,-9.505217552E0,1.146882384E1
2.873081316E0,6.280463219E0,-2.074798107E0,-9.117373466E0,1.126390271E1
2.875484545E0,6.440867424E0,-2.101133108E0,-8.624189377E0,1.096704955E1
2.877888139E0,6.498326302E0,-2.182532549E0,-8.260286331E0,1.073424535E1
2.880291732E0,6.464808464E0,-2.204079628E0,-8.071151733E0,1.057332520E1
2.882695586E0,6.438473701E0,-2.232808590E0,-8.001723289E0,1.051032604E1
2.885099232E0,6.493537426E0,-2.239990711E0,-7.927505970E0,1.048946794E1
2.887502618E0,6.663518429E0,-2.239990711E0,-7.743160725E0,1.045832559E1
2.889906836E0,6.905322552E0,-2.208867550E0,-7.501356602E0,1.043230206E1
2.892310534E0,7.166279793E0,-2.177744389E0,-7.249976158E0,1.042402470E1
2.894713868E0,7.393719196E0,-2.177744389E0,-7.024930954E0,1.042877313E1
2.897117618E0,7.518212318E0,-2.199291229E0,-6.809462070E0,1.037926645E1
2.899521264E0,7.573276043E0,-2.242385149E0,-6.598781586E0,1.029207071E1
2.901925326E0,7.542153358E0,-2.273508310E0,-6.397676945E0,1.014806324E1
2.904329024E0,7.472723961E0,-2.340543032E0,-6.210937500E0,9.994773119E0
2.906732618E0,7.403295040E0,-2.398001671E0,-6.084050179E0,9.877998585E0
2.909137045E0,7.314713478E0,-2.433912754E0,-5.990680218E0,9.763053520E0
2.911541159E0,7.245284557E0,-2.465036392E0,-5.914069176E0,9.671957762E0
2.913944961E0,7.297955036E0,-2.505735874E0,-5.823093414E0,9.666813172E0
2.916349076E0,7.324290276E0,-2.486582994E0,-5.768029213E0,9.648755569E0
2.918753347E0,7.355413437E0,-2.532071114E0,-5.775211811E0,9.688475753E0
2.921157930E0,7.379354477E0,-2.558406115E0,-5.796758175E0,9.726392943E0
2.923561993E0,7.364989758E0,-2.611076355E0,-5.830275536E0,9.749508023E0
2.925965795E0,7.300349236E0,-2.668534517E0,-5.921251774E0,9.771253655E0
2.928370378E0,7.240496635E0,-2.721204758E0,-6.055321217E0,9.823271446E0
2.930774649E0,7.175856113E0,-2.804998398E0,-6.184602261E0,9.879789071E0
2.933178347E0,7.084880352E0,-2.879215240E0,-6.359371662E0,9.946206208E0
2.935582305E0,7.017845631E0,-2.953432322E0,-6.560475826E0,1.005051058E1
2.937986420E0,6.948416710E0,-3.039619923E0,-6.763974190E0,1.016224045E1
2.940390691E0,6.886170387E0,-3.137778044E0,-6.977049351E0,1.029292045E1
2.942794441E0,6.835894108E0,-3.200024605E0,-7.144636154E0,1.039304727E1
2.945197722E0,6.802376747E0,-3.255088806E0,-7.278705597E0,1.048081522E1
2.947601732E0,6.766465187E0,-3.307759047E0,-7.405592442E0,1.056262848E1
2.950005586E0,6.747312069E0,-3.350852728E0,-7.527691841E0,1.064990979E1
2.952409336E0,6.742524147E0,-3.381976128E0,-7.642608643E0,1.073819637E1
2.954813399E0,6.716189384E0,-3.427463770E0,-7.690490723E0,1.077025326E1
2.957217097E0,6.720977306E0,-3.434646368E0,-7.743160725E0,1.081318037E1
2.959621211E0,6.694642067E0,-3.460981369E0,-7.764707565E0,1.082068889E1
2.962025066E0,6.653942585E0,-3.453799009E0,-7.810195446E0,1.082602570E1
2.964428659E0,6.574937344E0,-3.441828489E0,-7.838924408E0,1.079466166E1
2.966832930E0,6.436079502E0,-3.391552210E0,-7.872442245E0,1.071919272E1
2.969236836E0,6.263704300E0,-3.319729567E0,-7.867653847E0,1.059030561E1
2.971640378E0,6.062600136E0,-3.200024605E0,-7.886806488E0,1.044973657E1
2.974044128E0,5.816008091E0,-3.065955162E0,-7.822165966E0,1.021823427E1
2.976447826E0,5.545474529E0,-2.917520761E0,-7.733583927E0,9.953518750E0
2.978852201E0,5.227059841E0,-2.776268959E0,-7.568391800E0,9.607829014E0
2.981256159E0,4.963708878E0,-2.637411356E0,-7.407986641E0,9.299065037E0
2.983659545E0,4.683598995E0,-2.508130074E0,-7.218852997E0,8.963183285E0
2.986063711E0,4.417854309E0,-2.421942234E0,-7.039295673E0,8.656496084E0
2.988467618E0,4.202384949E0,-2.374060631E0,-6.905226231E0,8.424865128E0
2.990871159E0,4.027616024E0,-2.354907513E0,-6.823826790E0,8.266310682E0
2.993275118E0,3.879182100E0,-2.333360910E0,-6.785521030E0,8.156955471E0
2.995679180E0,3.764265060E0,-2.354907513E0,-6.819038391E0,8.137233278E0
2.998083607E0,3.685259819E0,-2.393213272E0,-6.910014153E0,8.188828078E0
3.000487305E0,3.589495897E0,-2.414760113E0,-7.087177753E0,8.303230438E0
3.002890378E0,3.527249098E0,-2.493765354E0,-7.333769798E0,8.511435325E0
3.005294493E0,3.510490656E0,-2.539253235E0,-7.618667603E0,8.764442234E0
3.007698451E0,3.484155416E0,-2.620652676E0,-7.905959129E0,9.028363593E0
3.010101732E0,3.441061735E0,-2.702052116E0,-8.221980095E0,9.313589436E0
3.012505482E0,3.462608576E0,-2.795421839E0,-8.538001060E0,9.628162001E0
3.014909649E0,3.512884617E0,-2.893579721E0,-8.810929298E0,9.916936878E0
3.017313920E0,3.567948818E0,-2.977373362E0,-9.033579826E0,1.015876840E1
3.019717514E0,3.649348497E0,-3.049196243E0,-9.203560829E0,1.035957886E1
3.022120899E0,3.735535860E0,-3.125807524E0,-9.351995468E0,1.054441654E1
3.024525066E0,3.895940542E0,-3.164113045E0,-9.462122917E0,1.071082323E1
3.026929076E0,4.063527584E0,-3.204812765E0,-9.567463875E0,1.087747426E1
3.029332826E0,4.223932266E0,-3.204812765E0,-9.596193314E0,1.096354663E1
3.031736889E0,4.401095867E0,-3.171295404E0,-9.605769157E0,1.103166173E1
3.034141159E0,4.568682671E0,-3.137778044E0,-9.572252274E0,1.106103639E1
3.036545847E0,4.614170074E0,-3.058772802E0,-9.419030190E0,1.092541927E1
3.038950222E0,4.566287994E0,-2.984555483E0,-9.114978790E0,1.062268308E1
3.041353972E0,4.439401150E0,-2.900762081E0,-8.751075745E0,1.023249871E1
3.043758139E0,4.216750145E0,-2.831333399E0,-8.379991531E0,9.799065704E0
3.046162305E0,3.927063704E0,-2.769086838E0,-8.063969612E0,9.387080332E0
3.048566264E0,3.630195379E0,-2.685293436E0,-7.774283886E0,8.990473251E0
3.050970326E0,3.338115454E0,-2.627834797E0,-7.544450760E0,8.658364035E0
3.053373972E0,3.077158689E0,-2.567982674E0,-7.271522999E0,8.302920410E0
3.055777930E0,2.871266127E0,-2.520100594E0,-6.989019394E0,7.965015271E0
3.058181732E0,2.730014324E0,-2.474612474E0,-6.732851028E0,7.675152642E0
3.060585222E0,2.598338842E0,-2.457853794E0,-6.488653183E0,7.409118041E0
3.062989441E0,2.521727800E0,-2.445883274E0,-6.352189064E0,7.258909146E0
3.065393139E0,2.483422279E0,-2.445883274E0,-6.294731140E0,7.195371522E0
3.067796316E0,2.440328360E0,-2.472218513E0,-6.287548542E0,7.183337215E0
3.070199857E0,2.471451759E0,-2.474612474E0,-6.337824821E0,7.238770902E0
3.072603607E0,2.495392561E0,-2.503341913E0,-6.457529545E0,7.361616167E0
3.075007618E0,2.550457001E0,-2.493765354E0,-6.644268990E0,7.541220522E0
3.077411420E0,2.612703562E0,-2.477006912E0,-6.850161552E0,7.738636601E0
3.079814961E0,2.674950123E0,-2.443489313E0,-7.022537231E0,7.902026787E0
3.082219128E0,2.739590883E0,-2.400395632E0,-7.254764557E0,8.117811662E0
3.084622982E0,2.744378805E0,-2.400395632E0,-7.494174004E0,8.334036130E0
3.087026784E0,2.732408524E0,-2.386031151E0,-7.716825485E0,8.526933597E0
3.089431264E0,2.741984844E0,-2.345331430E0,-7.949053288E0,8.729633931E0
3.091835482E0,2.744378805E0,-2.326178551E0,-8.116640091E0,8.878207479E0
3.094239909E0,2.761137724E0,-2.278296471E0,-8.257891655E0,9.000405042E0
3.096644024E0,2.782684565E0,-2.211261749E0,-8.413508415E0,9.133462419E0
3.099047618E0,2.871266127E0,-2.144227028E0,-8.549972534E0,9.270593781E0
3.101451993E0,2.976606607E0,-2.060433626E0,-8.684041023E0,9.408408054E0
3.103856107E0,3.096311331E0,-1.964669466E0,-8.851628304E0,9.581147822E0
3.106259805E0,3.295021772E0,-1.909605265E0,-9.038368225E0,9.807948864E0
3.108663764E0,3.450638056E0,-1.849752665E0,-9.246655464E0,1.004137068E1
3.111067774E0,3.623013258E0,-1.782717943E0,-9.519581795E0,1.034053895E1
3.113472253E0,3.766659260E0,-1.715683222E0,-9.787720680E0,1.062688887E1
3.115876211E0,3.900728464E0,-1.631889701E0,-1.001516056E1,1.087116312E1
3.118279649E0,3.958187342E0,-1.591190100E0,-1.026414585E1,1.111538677E1
3.120684076E0,4.006069183E0,-1.538519859E0,-1.041976357E1,1.126885559E1
3.123088295E0,3.984522104E0,-1.509790659E0,-1.046285725E1,1.129722382E1
3.125491889E0,3.905516863E0,-1.493031979E0,-1.041976357E1,1.122736297E1
3.127896055E0,3.807358980E0,-1.500214338E0,-1.026414585E1,1.104985590E1
3.130300378E0,3.658924580E0,-1.521761179E0,-1.000319004E1,1.075952123E1
3.132704857E0,3.488943577E0,-1.533731699E0,-9.596193314E0,1.032530805E1
3.135108555E0,3.311780453E0,-1.598372340E0,-9.201167107E0,9.908792057E0
3.137511993E0,3.134617090E0,-1.610342860E0,-8.806139946E0,9.485100378E0
3.139916628E0,2.986182928E0,-1.636677980E0,-8.461390495E0,9.120917301E0
3.142320899E0,2.861689806E0,-1.627101541E0,-8.198040009E0,8.834284801E0
3.144724649E0,2.789866924E0,-1.653436542E0,-8.023269653E0,8.653904655E0
3.147128816E0,2.773108244E0,-1.660618901E0,-7.949053288E0,8.581097403E0
3.149532774E0,2.792260885E0,-1.679771662E0,-8.044816971E0,8.679713923E0
3.151936784E0,2.864084005E0,-1.722865462E0,-8.186069489E0,8.842113789E0
3.154340586E0,2.926330328E0,-1.727653742E0,-8.463784218E0,9.120517525E0
3.156744024E0,3.093917370E0,-1.739624262E0,-8.818111420E0,9.505667061E0
3.159148243E0,3.283051252E0,-1.744412303E0,-9.091037750E0,9.821831152E0
3.161552149E0,3.469790936E0,-1.775535703E0,-9.304113388E0,1.008754193E1
3.163955899E0,3.632589579E0,-1.818629503E0,-9.430999756E0,1.026873297E1
3.166360014E0,3.752294779E0,-1.861723185E0,-9.567463875E0,1.044423737E1
3.168763764E0,3.735535860E0,-1.947910786E0,-9.852360725E0,1.071529731E1
3.171168139E0,3.680471659E0,-1.938334346E0,-9.486063957E0,1.035801241E1
3.173572253E0,3.534431696E0,-2.002975225E0,-9.763780594E0,1.057523185E1
3.175975795E0,3.376421213E0,-2.010157347E0,-8.595459938E0,9.451078474E0
3.178380222E0,3.256716251E0,-1.983822227E0,-9.984037399E0,1.068750458E1
3.180784336E0,3.007730007E0,-2.060433626E0,-8.260286331E0,9.029072865E0
3.183188243E0,2.921542406E0,-2.026916027E0,-9.016820908E0,9.692618732E0
3.185592618E0,2.746773243E0,-2.081980467E0,-8.875569344E0,9.521299128E0
3.187997149E0,2.617491722E0,-2.086768627E0,-8.035240173E0,8.704651105E0
3.190401941E0,2.504969120E0,-2.084374666E0,-9.287354469E0,9.842481449E0
3.192806003E0,2.282317877E0,-2.158591509E0,-7.855683327E0,8.460511375E0
3.195209389E0,2.172189474E0,-2.072404146E0,-9.002455711E0,9.489861690E0
3.197613555E0,1.997420192E0,-2.081980467E0,-8.875569344E0,9.332741358E0
3.200017514E0,1.906444430E0,-2.036492586E0,-8.485331535E0,8.932115297E0
3.202421107E0,1.913626790E0,-1.976639986E0,-9.936155319E0,1.031000755E1
3.204825066E0,1.932779431E0,-1.938334346E0,-8.578701019E0,9.004825792E0
3.207229024E0,2.148248434E0,-1.816235304E0,-1.002234268E1,1.040966065E1
3.209633139E0,2.270347357E0,-1.861723185E0,-9.814056396E0,1.024383684E1
3.212036628E0,2.469057560E0,-1.832994103E0,-9.670410156E0,1.014755858E1
3.214439909E0,2.653403282E0,-1.813841224E0,-1.116193390E1,1.161547835E1
3.216844180E0,2.749167204E0,-1.885664225E0,-9.900242805E0,1.044645670E1
3.219248034E0,2.923936367E0,-1.835388064E0,-1.150907803E1,1.201569516E1
3.221651472E0,2.916754246E0,-1.895240545E0,-1.094407082E1,1.148355686E1
3.224055014E0,2.990971088E0,-1.861723185E0,-1.075254345E1,1.131499500E1
3.226458868E0,3.014912128E0,-1.837782264E0,-1.193043900E1,1.244196582E1
3.228863555E0,2.952665567E0,-1.914393306E0,-1.037188148E1,1.095258240E1
3.231267670E0,3.014912128E0,-1.907211065E0,-1.187776947E1,1.240195778E1
3.233671316E0,2.957453728E0,-1.993398666E0,-1.099913502E1,1.156292099E1
3.236075899E0,3.041247129E0,-2.024522066E0,-1.099674129E1,1.158776047E1
3.238479857E0,3.101099730E0,-2.029310226E0,-1.205253792E1,1.260946429E1
3.240883451E0,3.127434969E0,-2.084374666E0,-1.056101513E1,1.120983978E1
3.243287618E0,3.268686771E0,-2.014945745E0,-1.217463684E1,1.276581771E1
3.245691472E0,3.290233374E0,-2.031704187E0,-1.109011078E1,1.174495699E1
3.248095586E0,3.438667774E0,-1.969457746E0,-1.115714550E1,1.183997870E1
3.250499597E0,3.534431696E0,-1.931152105E0,-1.186579895E1,1.253071189E1
3.252903086E0,3.563160658E0,-1.974245787E0,-1.017077732E1,1.095620699E1
3.255307305E0,3.663712978E0,-1.904816985E0,-1.163596535E1,1.234693525E1
3.257711420E0,3.644560099E0,-1.991004586E0,-1.017556477E1,1.099040654E1
3.260115482E0,3.706806660E0,-1.976639986E0,-1.029287624E1,1.111714094E1
3.262519909E0,3.678077459E0,-2.017339706E0,-1.068072033E1,1.147500327E1
3.264923920E0,3.558372736E0,-2.093950987E0,-9.148495674E0,1.003701252E1
3.267328295E0,3.579919338E0,-2.053251028E0,-1.073099613E1,1.149721446E1
3.269732305E0,3.512884617E0,-2.144227028E0,-9.976855278E0,1.079239126E1
3.272135795E0,3.524855137E0,-2.113103628E0,-9.210742950E0,1.008600993E1
3.274540170E0,3.575131178E0,-2.132256508E0,-9.217925072E0,1.011425842E1
3.276944441E0,3.658924580E0,-2.149015188E0,-9.229896545E0,1.015859171E1
3.279348295E0,3.771447420E0,-2.163379908E0,-8.971333504E0,9.969395824E0
3.281752461E0,3.910305262E0,-2.201685429E0,-9.043155670E0,1.009537371E1
3.284156680E0,4.085074425E0,-2.206473589E0,-8.808533669E0,9.957239785E0
3.286561107E0,4.250267029E0,-2.230414629E0,-8.674465179E0,9.913922805E0
3.288965014E0,4.456159592E0,-2.242385149E0,-8.557153702E0,9.905075918E0
3.291368764E0,4.592623711E0,-2.268720150E0,-8.394355774E0,9.833844239E0
3.293773243E0,4.748239517E0,-2.316601992E0,-8.154945374E0,9.716766815E0
3.296177045E0,4.899068356E0,-2.318996191E0,-7.965811729E0,9.634976419E0
3.298580274E0,5.037925720E0,-2.390819073E0,-7.783860207E0,9.575238437E0
3.300983920E0,5.164813042E0,-2.462642193E0,-7.745554447E0,9.629824195E0
3.303387357E0,5.296488762E0,-2.515312433E0,-7.834136009E0,9.785360333E0
3.305791159E0,5.430558205E0,-2.558406115E0,-7.982570648E0,9.987884582E0
3.308195066E0,5.562233448E0,-2.599105835E0,-8.188463211E0,1.023448689E1
3.310598764E0,5.722638130E0,-2.603893757E0,-8.327321053E0,1.043422857E1
3.313003034E0,5.863889694E0,-2.608682156E0,-8.394355774E0,1.056672294E1
3.315406889E0,5.959653854E0,-2.587135315E0,-8.346473694E0,1.057706795E1
3.317810326E0,6.000353813E0,-2.548829556E0,-8.193250656E0,1.047044098E1
3.320214284E0,5.952471733E0,-2.541647434E0,-7.946659088E0,1.024896493E1
3.322618347E0,5.873466015E0,-2.541647434E0,-7.647396564E0,9.971973171E0
3.325022722E0,5.775308132E0,-2.575164795E0,-7.259552479E0,9.627396322E0
3.327426628E0,5.737002850E0,-2.623046875E0,-6.809462070E0,9.282367709E0
3.329830222E0,5.722638130E0,-2.685293436E0,-6.397676945E0,8.993867816E0
3.332234805E0,5.775308132E0,-2.812180519E0,-6.050532818E0,8.824482459E0
3.334638868E0,5.861495495E0,-2.924703121E0,-5.918857574E0,8.828583848E0
3.337042618E0,5.983594418E0,-3.037225723E0,-5.997862816E0,9.000138921E0
3.339446576E0,6.225398540E0,-3.111442804E0,-5.930827618E0,9.143925828E0
3.341850534E0,6.562966824E0,-3.156930923E0,-5.930827618E0,9.392202224E0
3.344254961E0,6.893352032E0,-3.168901443E0,-6.048138618E0,9.702588280E0
3.346658920E0,7.159097195E0,-3.166507006E0,-6.165449619E0,9.964547570E0
3.349062461E0,7.465542316E0,-3.159324884E0,-6.270790100E0,1.024882746E1
3.351466941E0,7.743257523E0,-3.144960403E0,-6.347401142E0,1.049468028E1
3.353871316E0,8.006608009E0,-3.080319643E0,-6.443165302E0,1.072886387E1
3.356275066E0,8.195741653E0,-3.030043602E0,-6.574840546E0,1.093525828E1
3.358679076E0,8.432757378E0,-2.977373362E0,-6.759186268E0,1.120993970E1
3.361083243E0,8.741595268E0,-2.900762081E0,-6.833403111E0,1.146844831E1
3.363487878E0,9.136622429E0,-2.814574480E0,-6.835797310E0,1.175277941E1
3.365891889E0,9.495738029E0,-2.783451319E0,-6.706515789E0,1.195382767E1
3.368295430E0,9.823728561E0,-2.711628437E0,-6.572446346E0,1.212664927E1
3.370699545E0,1.003440952E1,-2.680505037E0,-6.373735905E0,1.218601621E1
3.373103607E0,1.014214325E1,-2.637411356E0,-6.165449619E0,1.215860919E1
3.375507514E0,1.015411472E1,-2.615864277E0,-5.918857574E0,1.204083331E1
3.377911420E0,1.002243900E1,-2.627834797E0,-5.691418171E0,1.182146523E1
3.380315118E0,9.804575920E0,-2.625440836E0,-5.466372490E0,1.152839437E1
3.382719284E0,9.538830757E0,-2.627834797E0,-5.289209843E0,1.121920446E1
3.385123243E0,9.289844513E0,-2.678111076E0,-5.102469444E0,1.093200276E1
3.387526732E0,8.995370865E0,-2.742751598E0,-4.977976799E0,1.064047162E1
3.389931107E0,8.698502541E0,-2.819362879E0,-4.887000561E0,1.036800501E1
3.392334961E0,8.492609978E0,-2.898368120E0,-4.879818439E0,1.021457733E1
3.394738347E0,8.274746895E0,-2.989343882E0,-4.973187923E0,1.010644404E1
3.397142357E0,8.004213333E0,-3.087501764E0,-5.138381004E0,1.000015288E1
3.399546628E0,7.748045444E0,-3.176083565E0,-5.358638287E0,9.941565234E0
3.401951055E0,7.467936039E0,-3.245512247E0,-5.624382973E0,9.896317611E0
3.404355066E0,7.149521351E0,-3.300576687E0,-5.830275536E0,9.798039336E0
3.406759076E0,6.785618305E0,-3.367611408E0,-6.074473858E0,9.710028580E0
3.409163659E0,6.476778984E0,-3.437040329E0,-6.392889023E0,9.727843661E0
3.411567722E0,6.148787498E0,-3.489710569E0,-6.737638950E0,9.766342518E0
3.413971472E0,5.904589653E0,-3.554351091E0,-7.070418835E0,9.873622089E0
3.416375482E0,5.720243931E0,-3.599838972E0,-7.355316639E0,9.989029688E0
3.418779545E0,5.598145008E0,-3.652508974E0,-7.601908684E0,1.012270048E1
3.421183868E0,5.593356609E0,-3.700391054E0,-7.798224926E0,1.028546762E1
3.423587566E0,5.617297649E0,-3.760243654E0,-7.963417530E0,1.044554852E1
3.425990951E0,5.665179729E0,-3.820096016E0,-8.133399010E0,1.062259735E1
3.428395222E0,5.715455532E0,-3.865584135E0,-8.277044296E0,1.077583570E1
3.430799076E0,5.708273888E0,-3.894313097E0,-8.442237854E0,1.090969501E1
3.433202409E0,5.622086048E0,-3.925436497E0,-8.619400978E0,1.101412622E1
3.435606159E0,5.442528725E0,-3.891919136E0,-8.798957825E0,1.105395008E1
3.438010014E0,5.215089321E0,-3.865584135E0,-8.968938828E0,1.107166478E1
3.440414336E0,4.961314678E0,-3.827278376E0,-9.146101952E0,1.108665342E1
3.442818295E0,4.707540035E0,-3.717149734E0,-9.306507111E0,1.107200117E1
3.445222045E0,4.456159592E0,-3.607021332E0,-9.435788155E0,1.104092656E1
3.447626420E0,4.312514305E0,-3.465769529E0,-9.545917511E0,1.103330772E1
3.450030222E0,4.147321224E0,-3.334094048E0,-9.574645996E0,1.095400851E1
3.452433711E0,4.030010223E0,-3.156930923E0,-9.483670235E0,1.077716087E1
3.454837566E0,3.881575823E0,-2.958220482E0,-9.340023994E0,1.053820419E1
3.457241420E0,3.666106939E0,-2.757116318E0,-9.098219872E0,1.018919208E1
3.459645534E0,3.407544374E0,-2.529676914E0,-8.753470421E0,9.727994056E0
3.462049389E0,3.041247129E0,-2.318996191E0,-8.411113739E0,9.239792301E0
3.464453191E0,2.665373564E0,-2.141832829E0,-8.145369530E0,8.833952053E0
3.466857722E0,2.311047077E0,-1.962275386E0,-7.941870689E0,8.500868975E0
3.469261680E0,2.023755074E0,-1.813841224E0,-7.704854965E0,8.170091469E0
3.471665378E0,1.856168628E0,-1.737230062E0,-7.417562962E0,7.841145997E0
3.474069597E0,1.805892467E0,-1.715683222E0,-7.163788795E0,7.584503044E0
3.476473555E0,1.865744948E0,-1.742018342E0,-6.957896233E0,7.411339427E0
3.478877722E0,2.076425314E0,-1.859329104E0,-6.895649433E0,7.437649354E0
3.481281524E0,2.435540199E0,-1.981428146E0,-6.917196751E0,7.596415237E0
3.483685274E0,2.849719524E0,-2.125074148E0,-7.041689396E0,7.888106937E0
3.486089909E0,3.321356773E0,-2.290266991E0,-7.324193001E0,8.361850083E0
3.488493972E0,3.749900341E0,-2.421942234E0,-7.678520203E0,8.881848302E0
3.490897670E0,4.113803864E0,-2.575164795E0,-8.111851692E0,9.452882831E0
3.493301576E0,4.425036430E0,-2.737963676E0,-8.585883141E0,1.003966044E1
3.495705326E0,4.666840553E0,-2.860062599E0,-9.103009224E0,1.062187063E1
3.498109493E0,4.834427834E0,-2.936673641E0,-9.569858551E0,1.111656139E1
3.500513399E0,4.968497276E0,-3.018073082E0,-9.919396400E0,1.149735427E1
3.502917201E0,5.033137798E0,-3.044408083E0,-1.015401840E1,1.173477679E1
3.505321836E0,5.081019878E0,-3.020467043E0,-1.018035316E1,1.177198262E1
3.507726107E0,5.059472561E0,-3.006102562E0,-1.010853004E1,1.169689253E1
3.510130118E0,4.958920479E0,-2.953432322E0,-9.984037399E0,1.153233097E1
3.512534389E0,4.803304195E0,-2.860062599E0,-9.797297478E0,1.128001450E1
3.514938659E0,4.561500072E0,-2.790633678E0,-9.450153351E0,1.085819127E1
3.517343191E0,4.288573265E0,-2.682899237E0,-8.885146141E0,1.022426677E1
3.519746993E0,3.922275782E0,-2.548829556E0,-8.159733772E0,9.405425809E0
3.522150274E0,3.481761456E0,-2.448277473E0,-7.412775040E0,8.547862845E0
3.524554701E0,2.967030048E0,-2.326178551E0,-6.802279472E0,7.777234726E0
3.526959024E0,2.428357840E0,-2.244779110E0,-6.333036423E0,7.144459768E0
3.529362618E0,1.892079949E0,-2.177744389E0,-5.988286018E0,6.646962208E0
3.531766264E0,1.384531021E0,-2.117892027E0,-5.744088173E0,6.276698314E0
3.534169701E0,9.176818132E-1,-2.081980467E0,-5.576500893E0,6.022802070E0
3.536573607E0,5.537787676E-1,-2.062827587E0,-5.538195610E0,5.935784632E0
3.538977461E0,2.162108123E-1,-2.072404146E0,-5.653112411E0,6.024888878E0
3.541381003E0,2.707700431E-2,-2.108315468E0,-5.851822853E0,6.220093085E0
3.543785118E0,-4.714005440E-2,-2.196897030E0,-6.098414421E0,6.482224710E0
3.546188972E0,-2.559316158E-2,-2.268720150E0,-6.409647465E0,6.799362231E0
3.548592566E0,6.298848987E-2,-2.330966473E0,-6.790308952E0,7.179531177E0
3.550996368E0,2.760632932E-1,-2.424336672E0,-7.276310921E0,7.674524080E0
3.553400170E0,5.609610081E-1,-2.469824314E0,-7.803013325E0,8.203762938E0
3.555804805E0,8.602234125E-1,-2.517706394E0,-8.336896896E0,8.751153048E0
3.558209024E0,1.188214898E0,-2.551223755E0,-8.889934540E0,9.324780609E0
3.560612514E0,1.480295062E0,-2.524888515E0,-9.447758675E0,9.890726943E0
3.563017149E0,1.705340266E0,-2.510524035E0,-9.957701683E0,1.040993464E1
3.565421264E0,1.904050469E0,-2.484189034E0,-1.042215729E1,1.088200192E1
3.567824649E0,2.088395834E0,-2.445883274E0,-1.087464237E1,1.134026406E1
3.570228347E0,2.251194715E0,-2.378848553E0,-1.121939182E1,1.168766662E1
3.572631889E0,2.447510719E0,-2.326178551E0,-1.146837807E1,1.195512906E1
3.575035899E0,2.636644602E0,-2.275902271E0,-1.167427158E1,1.218278469E1
3.577439545E0,2.832960606E0,-2.232808590E0,-1.185622215E1,1.239278434E1
3.579842982E0,3.012518167E0,-2.146620989E0,-1.203338528E1,1.258910674E1
3.582247618E0,3.213622332E0,-2.065221786E0,-1.216506100E1,1.275073404E1
3.584651836E0,3.412332773E0,-1.957487226E0,-1.223927784E1,1.285595944E1
3.587055378E0,3.579919338E0,-1.837782264E0,-1.224406624E1,1.288838330E1
3.589458868E0,3.745112181E0,-1.682165861E0,-1.219139576E1,1.286412367E1
3.591862618E0,3.831300020E0,-1.514578938E0,-1.202380943E1,1.271002764E1
3.594266941E0,3.840876341E0,-1.416420817E0,-1.187776947E1,1.256343849E1
3.596670586E0,3.800176382E0,-1.299109936E0,-1.164554119E1,1.231858989E1
3.599074076E0,3.690047979E0,-1.229681253E0,-1.133430958E1,1.198311911E1
3.601478555E0,3.572737217E0,-1.157858253E0,-1.093928242E1,1.156602727E1
3.603882670E0,3.486549616E0,-1.064488292E0,-1.051073933E1,1.112496313E1
3.606286055E0,3.395573854E0,-1.011818171E0,-1.006783009E1,1.067309236E1
3.608689753E0,3.323750973E0,-9.615421295E-1,-9.589011192E0,1.019416595E1
3.611093607E0,3.311780453E0,-9.040837884E-1,-9.198773384E0,9.818487105E0
3.613497826E0,3.318962574E0,-8.681722879E-1,-8.827687263E0,9.470865753E0
3.615901784E0,3.352480173E0,-8.226844072E-1,-8.540394783E0,9.211638073E0
3.618305534E0,3.395573854E0,-7.963493466E-1,-8.365626335E0,9.063542247E0
3.620710326E0,3.467396975E0,-7.652260661E-1,-8.303380013E0,9.030754805E0
3.623114649E0,3.567948818E0,-7.724083066E-1,-8.310562134E0,9.077021336E0
3.625518607E0,3.675683498E0,-7.939552069E-1,-8.356050491E0,9.163219623E0
3.627923086E0,3.795388460E0,-8.059257269E-1,-8.432661057E0,9.282470702E0
3.630327618E0,3.924669504E0,-8.657782078E-1,-8.499695778E0,9.401990797E0
3.632732357E0,4.034798622E0,-9.543598294E-1,-8.566730499E0,9.517314435E0
3.635136420E0,4.073104382E0,-1.050123811E0,-8.595459938E0,9.569475998E0
3.637540222E0,4.094651222E0,-1.184193254E0,-8.645735741E0,9.639358318E0
3.639944961E0,4.044374466E0,-1.330233335E0,-8.609824181E0,9.604975688E0
3.642349389E0,3.982128382E0,-1.469091058E0,-8.528425217E0,9.526259059E0
3.644753347E0,3.898334742E0,-1.605554700E0,-8.420690536E0,9.417157149E0
3.647157774E0,3.833693743E0,-1.751594663E0,-8.274650574E0,9.286287401E0
3.649562253E0,3.685259819E0,-1.885664225E0,-8.154945374E0,9.145490886E0
3.651967201E0,3.539219618E0,-1.983822227E0,-8.066364288E0,9.029277876E0
3.654371576E0,3.369238615E0,-2.079586267E0,-7.953841209E0,8.884820644E0
3.656775378E0,3.151375771E0,-2.187320709E0,-7.934688568E0,8.813332162E0
3.659179597E0,2.959847927E0,-2.235202789E0,-7.956235409E0,8.778297850E0
3.661583191E0,2.749167204E0,-2.256749630E0,-8.037634850E0,8.789448969E0
3.663986524E0,2.634250402E0,-2.251961231E0,-8.210010529E0,8.911502536E0
3.666390430E0,2.591156721E0,-2.220838070E0,-8.403932571E0,9.070407794E0
3.668794441E0,2.655797482E0,-2.206473589E0,-8.583489418E0,9.251922857E0
3.671198711E0,2.811413765E0,-2.168168068E0,-8.825293541E0,9.512665568E0
3.673602774E0,3.017306089E0,-2.151409388E0,-9.146101952E0,9.868327077E0
3.676006628E0,3.251927853E0,-2.182532549E0,-9.483670235E0,1.026053041E1
3.678411159E0,3.510490656E0,-2.225626230E0,-9.763780594E0,1.061170902E1
3.680815170E0,3.687654018E0,-2.256749630E0,-1.002473736E1,1.091728309E1
3.683218659E0,3.778629780E0,-2.275902271E0,-1.021147633E1,1.112348969E1
3.685622409E0,3.807358980E0,-2.318996191E0,-1.042215729E1,1.133556740E1
3.688026107E0,3.749900341E0,-2.359695911E0,-1.057059097E1,1.146155796E1
3.690430274E0,3.646954060E0,-2.388425112E0,-1.082197094E1,1.166704347E1
3.692833868E0,3.544008017E0,-2.424336672E0,-1.113559818E1,1.193477893E1
3.695236941E0,3.493731976E0,-2.409971714E0,-1.145880222E1,1.221958572E1
3.697640951E0,3.496125937E0,-2.414760113E0,-1.157611275E1,1.233127525E1
3.700044701E0,3.577525377E0,-2.357301712E0,-1.154738331E1,1.231655879E1
3.702448034E0,3.606254578E0,-2.307025671E0,-1.154738331E1,1.231541720E1
3.704851576E0,3.591889858E0,-2.208867550E0,-1.156174850E1,1.230669725E1
3.707255430E0,3.555978298E0,-2.098739147E0,-1.160244846E1,1.231529529E1
3.709659857E0,3.503308535E0,-1.979034066E0,-1.153780746E1,1.221927770E1
3.712063659E0,3.421908855E0,-1.852146864E0,-1.135824966E1,1.200623770E1
3.714467305E0,3.321356773E0,-1.742018342E0,-1.113320446E1,1.174794792E1
3.716871836E0,3.235169172E0,-1.655830741E0,-1.085070133E1,1.144315579E1
3.719275899E0,3.165740490E0,-1.598372340E0,-1.055383205E1,1.113373603E1
3.721679493E0,3.163346052E0,-1.581613660E0,-1.023541737E1,1.082922106E1
3.724083295E0,3.199257612E0,-1.595978260E0,-1.004388905E1,1.066124303E1
3.726487045E0,3.266292334E0,-1.605554700E0,-9.955307961E0,1.059974661E1
3.728891211E0,3.397967815E0,-1.694136381E0,-9.919396400E0,1.062123855E1
3.731294805E0,3.591889858E0,-1.737230062E0,-9.912214279E0,1.068511268E1
3.733698243E0,3.757082701E0,-1.799476743E0,-9.890666962E0,1.073215169E1
3.736102409E0,3.891152620E0,-1.825811744E0,-9.905032158E0,1.079742188E1
3.738506211E0,4.025222301E0,-1.837782264E0,-9.917001724E0,1.085940981E1
3.740909909E0,4.154503345E0,-1.866511464E0,-9.823632240E0,1.082808910E1
3.743314180E0,4.300543785E0,-1.880875945E0,-9.706320763E0,1.078169903E1
3.745718295E0,4.398701668E0,-1.907211065E0,-9.548311234E0,1.068439413E1
3.748122514E0,4.489676952E0,-1.976639986E0,-9.440577507E0,1.063902291E1
3.750526159E0,4.556712151E0,-2.053251028E0,-9.392695427E0,1.063965191E1
3.752929493E0,4.614170074E0,-2.146620989E0,-9.335236549E0,1.063227109E1
3.755333711E0,4.702752113E0,-2.218444109E0,-9.280172348E0,1.063762053E1
3.757737409E0,4.764998436E0,-2.266326189E0,-9.217925072E0,1.062127992E1
3.760141003E0,4.832033157E0,-2.307025671E0,-9.148495674E0,1.060027759E1
3.762544909E0,4.882309437E0,-2.338149071E0,-8.980910301E0,1.048621173E1
3.764948659E0,4.925403118E0,-2.390819073E0,-8.815716743E0,1.037749842E1
3.767352774E0,4.970890999E0,-2.405183792E0,-8.564335823E0,1.019031474E1
3.769756524E0,4.994832039E0,-2.457853794E0,-8.291409492E0,9.986834521E0
3.772159909E0,4.963708878E0,-2.510524035E0,-8.035240173E0,9.772728452E0
3.774564284E0,4.963708878E0,-2.572770596E0,-7.788648605E0,9.587523218E0
3.776968555E0,5.006802559E0,-2.656563997E0,-7.518115044E0,9.415277901E0
3.779372305E0,5.057078838E0,-2.721204758E0,-7.192518234E0,9.203875285E0
3.781776003E0,5.181571484E0,-2.812180519E0,-6.883678913E0,9.063226671E0
3.784179597E0,5.265365124E0,-2.898368120E0,-6.670604706E0,8.978951764E0
3.786583816E0,5.344370842E0,-3.008496523E0,-6.620327950E0,9.024527311E0
3.788987461E0,5.476045609E0,-3.097078323E0,-6.687363148E0,9.181492009E0
3.791390795E0,5.610115528E0,-3.185659885E0,-6.799885750E0,9.373380999E0
3.793795066E0,5.832766533E0,-3.243118286E0,-6.823826790E0,9.544820255E0
3.796198868E0,6.074570656E0,-3.310153008E0,-6.838191032E0,9.727197859E0
3.798602461E0,6.309192181E0,-3.324517488E0,-6.881285191E0,9.910116466E0
3.801006576E0,6.517478466E0,-3.353246927E0,-6.881285191E0,1.005355044E1
3.803410378E0,6.756888866E0,-3.384370089E0,-6.823826790E0,1.018204892E1
3.805814649E0,6.936446190E0,-3.377187729E0,-6.725668430E0,1.023495474E1
3.808218451E0,7.113609791E0,-3.403522730E0,-6.608357430E0,1.028872194E1
3.810621732E0,7.257255077E0,-3.365217209E0,-6.536534786E0,1.033047555E1
3.813025899E0,7.403295040E0,-3.355641127E0,-6.438376427E0,1.036927171E1
3.815429701E0,7.568488121E0,-3.322123528E0,-6.385706425E0,1.044489175E1
3.817833139E0,7.719316483E0,-3.276635647E0,-6.368947983E0,1.053032224E1
3.820236836E0,7.906055927E0,-3.245512247E0,-6.409647465E0,1.068282035E1
3.822640586E0,8.174194336E0,-3.197630405E0,-6.433588505E0,1.088270896E1
3.825045014E0,8.480639458E0,-3.180871725E0,-6.414435387E0,1.109883651E1
3.827449076E0,8.813418388E0,-3.140172005E0,-6.361765385E0,1.131410990E1
3.829852618E0,9.115076065E0,-3.140172005E0,-6.275578022E0,1.150339825E1
3.832256941E0,9.352091789E0,-3.123413324E0,-6.179814339E0,1.163647012E1
3.834661003E0,9.481372833E0,-3.104260683E0,-6.134325981E0,1.171165319E1
3.837064857E0,9.493342400E0,-3.106654644E0,-6.067291737E0,1.168703906E1
3.839469128E0,9.404761314E0,-3.087501764E0,-5.983498096E0,1.156652290E1
3.841873399E0,9.213233948E0,-3.065955162E0,-5.813517094E0,1.131727625E1
3.844277982E0,8.978611946E0,-3.032437563E0,-5.679447651E0,1.104840602E1
3.846682045E0,8.645832062E0,-3.027649403E0,-5.490313530E0,1.067991646E1
3.849085639E0,8.272352219E0,-3.010890722E0,-5.339485645E0,1.029598859E1
3.851490014E0,7.925209522E0,-3.039619923E0,-5.262874126E0,9.987295896E0
3.853894024E0,7.599611759E0,-3.085107803E0,-5.174292564E0,9.697695221E0
3.856297774E0,7.321896076E0,-3.135383844E0,-5.164716244E0,9.492896707E0
3.858702149E0,7.082486153E0,-3.207206726E0,-5.253298283E0,9.383225881E0
3.861106472E0,6.869410992E0,-3.279029846E0,-5.373002529E0,9.317188432E0
3.863510847E0,6.713795185E0,-3.379581928E0,-5.526225090E0,9.329297055E0
3.865914701E0,6.603666782E0,-3.437040329E0,-5.727329731E0,9.392761417E0
3.868317774E0,6.503114223E0,-3.506469011E0,-5.988286018E0,9.510278070E0
3.870721576E0,6.469596863E0,-3.587868690E0,-6.304306984E0,9.719710482E0
3.873125378E0,6.455232143E0,-3.659691572E0,-6.637087345E0,9.955616146E0
3.875528711E0,6.455232143E0,-3.702785254E0,-6.979443073E0,1.020261076E1
3.877932514E0,6.500720024E0,-3.772214174E0,-7.216459274E0,1.041951271E1
3.880336316E0,6.577331066E0,-3.815307856E0,-7.427139759E0,1.062921742E1
3.882740378E0,6.596484184E0,-3.887130737E0,-7.599514484E0,1.078777129E1
3.885144024E0,6.618031025E0,-3.930224657E0,-7.810195446E0,1.096558951E1
3.887547201E0,6.539025784E0,-3.961347818E0,-8.051999092E0,1.110341498E1
3.889951524E0,6.407350063E0,-3.975712538E0,-8.289014816E0,1.120572138E1
3.892355639E0,6.177516460E0,-3.970924377E0,-8.499695778E0,1.123275471E1
3.894759024E0,5.892619133E0,-3.901495457E0,-8.628976822E0,1.115364819E1
3.897162930E0,5.547868729E0,-3.796154976E0,-8.648130417E0,1.095352910E1
3.899566889E0,5.222271442E0,-3.659691572E0,-8.638552666E0,1.073732060E1
3.901971003E0,4.841609478E0,-3.518439531E0,-8.638552666E0,1.050929071E1
3.904374597E0,4.482495308E0,-3.334094048E0,-8.636158943E0,1.028553298E1
3.906777930E0,4.180838585E0,-3.152142525E0,-8.614612579E0,1.008101997E1
3.909182097E0,3.939034224E0,-2.931885481E0,-8.504484177E0,9.820295016E0
3.911585586E0,3.766659260E0,-2.716416597E0,-8.298591614E0,9.509640576E0
3.913988399E0,3.661319017E0,-2.505735874E0,-7.949053288E0,9.103373956E0
3.916391836E0,3.539219618E0,-2.318996191E0,-7.573179722E0,8.675071754E0
3.918795586E0,3.400362253E0,-2.182532549E0,-7.269129276E0,8.316619038E0
3.921199805E0,3.239957333E0,-2.098739147E0,-7.048871994E0,8.036704916E0
3.923603399E0,3.098705769E0,-2.017339706E0,-6.929167271E0,7.853979628E0
3.926006368E0,2.969424248E0,-2.005369186E0,-6.921984673E0,7.794411956E0
3.928410378E0,2.849719524E0,-2.024522066E0,-7.034507751E0,7.855182383E0
3.930814336E0,2.816201925E0,-2.065221786E0,-7.170970917E0,7.976149334E0
3.933217722E0,2.804231405E0,-2.141832829E0,-7.345740318E0,8.149298280E0
3.935621316E0,2.864084005E0,-2.271114349E0,-7.431927681E0,8.282178858E0
3.938024961E0,2.981394768E0,-2.374060631E0,-7.508539200E0,8.420394264E0
3.940428816E0,3.127434969E0,-2.524888515E0,-7.613879204E0,8.609707778E0
3.942832461E0,3.239957333E0,-2.639805317E0,-7.779072285E0,8.830620660E0
3.945236159E0,3.376421213E0,-2.725993156E0,-7.989752769E0,9.092161911E0
3.947640586E0,3.536825657E0,-2.776268959E0,-8.198040009E0,9.350115777E0
3.950044076E0,3.697230339E0,-2.843303919E0,-8.387172699E0,9.596799218E0
3.952447045E0,3.883970022E0,-2.850486040E0,-8.540394783E0,9.805551328E0
3.954850691E0,4.053951263E0,-2.857668400E0,-8.638552666E0,9.961193788E0
3.957254336E0,4.245479107E0,-2.888791561E0,-8.707982063E0,1.010931062E1
3.959658711E0,4.391519070E0,-2.912732601E0,-8.705588341E0,1.017628219E1
