"Time (s)","Acceleration x (m/s^2)","Acceleration y (m/s^2)","Acceleration z (m/s^2)","Absolute acceleration (m/s^2)"
0.000000000E0,8.447313309E0,-4.174704552E0,-1.254232287E0,9.505701387E0
0.000000000E0,8.101714134E0,-4.377748489E0,-2.287569046E0,9.488699905E0
0.000000000E0,8.057568550E0,-4.552535534E0,-4.137337208E0,1.013743310E1
0.000000000E0,8.473672867E0,-5.081444740E0,-4.108855724E0,1.070079006E1
0.000000000E0,8.482477188E0,-4.687771797E0,-3.752787352E0,1.039283583E1
0.000000000E0,7.882235050E0,-4.577391624E0,-4.897931576E0,1.034755416E1
0.000000000E0,7.511571407E0,-4.267308712E0,-4.453459740E0,9.719410080E0
0.000000000E0,6.807285309E0,-4.412490845E0,-4.995532513E0,9.527043288E0
0.000000000E0,6.821828842E0,-4.114480019E0,-4.861862183E0,9.332952291E0
0.000000000E0,7.221062183E0,-3.727247000E0,-4.211996555E0,9.152978981E0
0.000000000E0,7.006024361E0,-3.576342583E0,-5.184247494E0,9.420776278E0
0.000000000E0,6.825613499E0,-3.420604467E0,-5.978198528E0,9.696823820E0
0.000000000E0,6.770958424E0,-3.448132753E0,-5.752075672E0,9.530050997E0
0.000000000E0,6.940162659E0,-3.568995953E0,-6.401895523E0,1.009395146E1
0.000000000E0,6.849057198E0,-3.395535231E0,-6.548627377E0,1.006597062E1
0.000000000E0,6.554675579E0,-3.329020262E0,-6.361851215E0,9.722103617E0
0.000000000E0,6.662089348E0,-3.304513693E0,-6.366337776E0,9.789458714E0
0.000000000E0,6.742270470E0,-3.234528065E0,-6.151255131E0,9.682888132E0
0.000000000E0,6.721396923E0,-3.318566561E0,-6.364035130E0,9.833158381E0
0.000000000E0,6.759222984E0,-3.422425747E0,-6.136134148E0,9.749473607E0
0.000000000E0,6.963898182E0,-3.401570320E0,-4.854228973E0,9.144949287E0
0.000000000E0,7.482934475E0,-3.443133354E0,-4.093879223E0,9.198332607E0
0.000000000E0,8.581925392E0,-3.765630484E0,-3.843391180E0,1.012921873E1
0.000000000E0,9.473090172E0,-4.023908615E0,-5.076012611E0,1.147593926E1
2.409485900E-2,9.253933907E0,-3.247906685E0,-3.936543465E0,1.056790258E1
2.649902600E-2,9.263509750E0,-3.207206726E0,-4.310023308E0,1.070864552E1
2.890371300E-2,9.220416069E0,-3.200024605E0,-4.721807957E0,1.084212619E1
3.130798400E-2,9.162958145E0,-3.161719084E0,-5.078528404E0,1.094293015E1
3.371204700E-2,9.098317146E0,-3.135383844E0,-5.346667767E0,1.100894468E1
3.611663000E-2,9.048040390E0,-3.142565966E0,-5.487919807E0,1.103902258E1
3.852147400E-2,9.055222511E0,-3.147354364E0,-5.473555088E0,1.103914397E1
4.092668200E-2,9.060011864E0,-3.149748564E0,-5.332303047E0,1.097443332E1
4.333126600E-2,9.103104591E0,-3.156930923E0,-5.167109966E0,1.093305774E1
4.573538000E-2,9.179717064E0,-3.195236206E0,-4.922912121E0,1.089549464E1
4.814032800E-2,9.265903473E0,-3.200024605E0,-4.700261116E0,1.087150308E1
5.054506800E-2,9.344908714E0,-3.240724325E0,-4.410574913E0,1.082971764E1
5.294944300E-2,9.361667633E0,-3.259876966E0,-4.168771267E0,1.075389569E1
5.535428600E-2,9.380820274E0,-3.298182487E0,-3.864720345E0,1.066835789E1
5.775913000E-2,9.390397072E0,-3.348458529E0,-3.563064098E0,1.058712225E1
6.016428600E-2,9.373639107E0,-3.353246927E0,-3.242254734E0,1.047003299E1
6.256913000E-2,9.261116028E0,-3.401128769E0,-2.890322208E0,1.028055978E1
6.497360900E-2,9.146198273E0,-3.415493250E0,-2.555148602E0,1.009194339E1
6.737902600E-2,9.083952904E0,-3.429857969E0,-2.121816635E0,9.939025701E0
6.978366100E-2,9.048040390E0,-3.420281649E0,-1.726790428E0,9.825841778E0
7.218767200E-2,9.026494026E0,-3.389158249E0,-1.286276102E0,9.727203825E0
7.459235900E-2,9.038464546E0,-3.386764288E0,-7.906977534E-1,9.684483292E0
7.699689100E-2,9.031281471E0,-3.372399569E0,-3.406071663E-1,9.646405398E0
7.940189100E-2,8.990582466E0,-3.348458529E0,5.441913009E-2,9.594045499E0
8.180631800E-2,8.949882507E0,-3.334094048E0,3.369227648E-1,9.556678134E0
8.421032800E-2,8.933123589E0,-3.291000366E0,5.883031487E-1,9.538211628E0
8.661522400E-2,8.930729866E0,-3.235936165E0,7.918015718E-1,9.531850216E0
8.901965100E-2,8.930729866E0,-3.166507006E0,1.007270336E0,9.528866464E0
9.142397400E-2,8.947488785E0,-3.089895964E0,1.143733978E0,9.534838228E0
9.382860900E-2,8.954670906E0,-3.018073082E0,1.237103820E0,9.530232003E0
9.623308800E-2,8.957064629E0,-2.967797041E0,1.311321020E0,9.526614764E0
9.863788000E-2,9.000158310E0,-2.915126801E0,1.320897341E0,9.552255422E0
1.010423070E-1,9.057616234E0,-2.843303919E0,1.299350500E0,9.581915296E0
1.034463700E-1,9.110287666E0,-2.795421839E0,1.246680260E0,9.610719863E0
1.058512130E-1,9.174927711E0,-2.745145798E0,1.146128178E0,9.645140422E0
1.082557450E-1,9.227597237E0,-2.709234238E0,1.050364256E0,9.674283745E0
1.106596510E-1,9.273085594E0,-2.694869518E0,9.067182541E-1,9.699204924E0
1.130640260E-1,9.342514992E0,-2.687687397E0,7.558900714E-1,9.750775339E0
1.154687130E-1,9.395184517E0,-2.682899237E0,5.715444088E-1,9.787446216E0
1.178734530E-1,9.416731834E0,-2.694869518E0,3.895929456E-1,9.802496765E0
1.202773590E-1,9.414338112E0,-2.716416597E0,2.172178328E-1,9.800809395E0
1.226810050E-1,9.404761314E0,-2.730781078E0,6.160141528E-2,9.793390394E0
1.250855880E-1,9.373639107E0,-2.778663158E0,-4.613302648E-2,9.776922180E0
1.274897550E-1,9.330544472E0,-2.828939438E0,-1.203500926E-1,9.750714980E0
1.298938180E-1,9.263509750E0,-2.855274439E0,-1.825966537E-1,9.695284759E0
1.322980360E-1,9.239568710E0,-2.900762081E0,-2.256904393E-1,9.686846070E0
1.347019430E-1,9.222809792E0,-2.943856001E0,-1.897789538E-1,9.683105114E0
1.371063180E-1,9.208445549E0,-2.982161522E0,-1.011973023E-1,9.679824258E0
1.395103280E-1,9.182110786E0,-3.015678883E0,2.090173960E-2,9.664673533E0
1.419140780E-1,9.167745590E0,-3.061166763E0,1.525771767E-1,9.666518554E0
1.443186090E-1,9.141410828E0,-3.085107803E0,3.153758645E-1,9.653120947E0
1.467227760E-1,9.117469788E0,-3.123413324E0,4.997215271E-1,9.650579658E0
1.491263700E-1,9.110287666E0,-3.173689365E0,6.912493706E-1,9.671994171E0
1.515303800E-1,9.067193985E0,-3.204812765E0,8.109543324E-1,9.651035103E0
1.539345990E-1,9.045646667E0,-3.221571207E0,9.330533743E-1,9.647426251E0
1.563390780E-1,8.985795021E0,-3.209600925E0,1.047970176E0,9.599181827E0
1.587431410E-1,8.904395103E0,-3.226359606E0,1.174857378E0,9.543476218E0
1.611467860E-1,8.815813065E0,-3.207206726E0,1.241892099E0,9.462929301E0
1.635510570E-1,8.724837303E0,-3.185659885E0,1.359202981E0,9.387153329E0
1.659549630E-1,8.636255264E0,-3.154536486E0,1.428631783E0,9.304675932E0
1.683586090E-1,8.552462578E0,-3.135383844E0,1.488484263E0,9.229888049E0
1.707627240E-1,8.497397423E0,-3.089895964E0,1.517213464E0,9.168159942E0
1.731665780E-1,8.444727898E0,-3.073137283E0,1.514819384E0,9.113302354E0
1.755708490E-1,8.399239540E0,-3.013284922E0,1.519607544E0,9.051868203E0
1.779749630E-1,8.368116379E0,-2.986949921E0,1.550730824E0,9.019534780E0
1.803787660E-1,8.351357460E0,-2.963008881E0,1.524395704E0,8.991572461E0
1.827832970E-1,8.346570015E0,-2.931885481E0,1.498060584E0,8.972478420E0
1.851876200E-1,8.339387894E0,-2.907944679E0,1.476513743E0,8.954419330E0
1.875915260E-1,8.320234299E0,-2.893579721E0,1.445390463E0,8.926827879E0
1.899955360E-1,8.305870056E0,-2.874427080E0,1.416661263E0,8.902625318E0
1.923993380E-1,8.293899536E0,-2.867244720E0,1.363991141E0,8.880897119E0
1.948038180E-1,8.279534340E0,-2.876821280E0,1.249074340E0,8.853641978E0
1.972084530E-1,8.241230011E0,-2.876821280E0,1.201192379E0,8.811176760E0
1.996129320E-1,8.226864815E0,-2.910338640E0,1.150916338E0,8.802044314E0
2.020178800E-1,8.190953255E0,-2.927097321E0,1.126975417E0,8.770957048E0
2.044223590E-1,8.164618492E0,-2.960614681E0,1.150916338E0,8.760755837E0
2.068266300E-1,8.150253296E0,-2.982161522E0,1.189221859E0,8.759803922E0
2.092313180E-1,8.162223816E0,-3.008496523E0,1.203586459E0,8.781888710E0
2.116357970E-1,8.178982735E0,-3.025255442E0,1.277803659E0,8.813666164E0
2.140407970E-1,8.212500572E0,-3.049196243E0,1.349626541E0,8.863647961E0
2.164453800E-1,8.248412132E0,-3.085107803E0,1.450178742E0,8.925088865E0
2.188494950E-1,8.293899536E0,-3.116230965E0,1.557913065E0,8.995930083E0
2.212545990E-1,8.358540535E0,-3.137778044E0,1.680012107E0,9.084783520E0
2.236591820E-1,8.463880539E0,-3.154536486E0,1.845204949E0,9.219173256E0
2.260630360E-1,8.511762619E0,-3.209600925E0,1.859569669E0,9.284914665E0
2.284672550E-1,8.664984703E0,-3.156930923E0,2.302477837E0,9.505239447E0
2.308714740E-1,8.763142586E0,-3.223965645E0,2.278536797E0,9.611365792E0
2.332759530E-1,8.863695145E0,-3.231147766E0,3.418127537E0,1.003439103E1
2.356799110E-1,9.024099350E0,-3.219177246E0,2.245019436E0,9.840608898E0
2.380836610E-1,9.081557274E0,-3.295788527E0,3.916100502E0,1.042462218E1
2.404884530E-1,9.249144554E0,-3.233541727E0,3.293634892E0,1.033685145E1
2.428927760E-1,9.328150749E0,-3.288606167E0,3.722178459E0,1.056806223E1
2.452965780E-1,9.421519279E0,-3.298182487E0,4.591236115E0,1.098737832E1
2.477007450E-1,9.562771797E0,-3.262271166E0,3.671902180E0,1.075043642E1
2.501049630E-1,9.584319115E0,-3.358035088E0,5.192154884E0,1.140587765E1
2.525100680E-1,9.699235916E0,-3.312546968E0,4.363796711E0,1.113960801E1
2.549148070E-1,9.723176956E0,-3.353246927E0,4.828251839E0,1.136206191E1
2.573186090E-1,9.790211678E0,-3.377187729E0,5.362135887E0,1.166216716E1
2.597229840E-1,9.854851723E0,-3.384370089E0,4.284791470E0,1.126638812E1
2.621270470E-1,9.797393799E0,-3.456192970E0,5.675762653E0,1.183843219E1
2.645306410E-1,9.866822243E0,-3.434646368E0,4.435619831E0,1.135014097E1
2.669347030E-1,9.826122284E0,-3.518439531E0,4.876133919E0,1.151992959E1
2.693390780E-1,9.852458000E0,-3.535198212E0,5.132302284E0,1.165800505E1
2.717436610E-1,9.876399040E0,-3.556745291E0,3.980741024E0,1.122675350E1
2.741478280E-1,9.797393799E0,-3.657297373E0,5.256795406E0,1.170464212E1
2.765517340E-1,9.806969643E0,-3.616597891E0,3.729360580E0,1.109795315E1
2.789562130E-1,9.670506477E0,-3.707573652E0,4.272820950E0,1.120365105E1
2.813602240E-1,9.603471756E0,-3.717149734E0,4.177056789E0,1.111268083E1
2.837639740E-1,9.476584435E0,-3.753061295E0,3.020707607E0,1.063088877E1
2.861683490E-1,9.301815987E0,-3.793761015E0,4.327885151E0,1.093832680E1
2.885724630E-1,9.203657150E0,-3.765031815E0,2.726233482E0,1.031092229E1
2.909770470E-1,8.990582466E0,-3.839248896E0,3.513891697E0,1.038835117E1
2.933811090E-1,8.878059387E0,-3.815307856E0,3.310393333E0,1.021446115E1
2.957845470E-1,8.743990898E0,-3.796154976E0,2.424576759E0,9.835992166E0
2.981891300E-1,8.588374138E0,-3.834460735E0,3.748513699E0,1.012495009E1
3.005932450E-1,8.564433098E0,-3.748273134E0,2.137285233E0,9.589945461E0
3.029969430E-1,8.442333221E0,-3.791366816E0,3.142806530E0,9.773673078E0
3.054011610E-1,8.425574303E0,-3.729120255E0,2.769327164E0,9.621112885E0
3.078052760E-1,8.363328934E0,-3.702785254E0,2.067856312E0,9.377202099E0
3.102098070E-1,8.348963737E0,-3.748273134E0,3.317575932E0,9.734529112E0
3.126140260E-1,8.360934258E0,-3.652508974E0,1.701558948E0,9.281236249E0
3.150177760E-1,8.286717415E0,-3.693208933E0,2.845938206E0,9.508356430E0
3.174224630E-1,8.332205772E0,-3.647721052E0,2.316842556E0,9.386121741E0
3.198270990E-1,8.320234299E0,-3.635750532E0,1.804505229E0,9.257495333E0
3.222314220E-1,8.281929016E0,-3.626173973E0,2.927337646E0,9.503093791E0
3.246360570E-1,8.348963737E0,-3.578292131E0,1.320897341E0,9.179005385E0
3.270404840E-1,8.257987976E0,-3.628568411E0,2.702292442E0,9.416116958E0
3.294452760E-1,8.341781616E0,-3.561533213E0,2.034338951E0,9.295610487E0
3.318496510E-1,8.329811096E0,-3.583080292E0,1.864357710E0,9.257431984E0
3.342533490E-1,8.360934258E0,-3.599838972E0,2.984796047E0,9.579826185E0
3.366576200E-1,8.504580498E0,-3.535198212E0,1.507637024E0,9.332656923E0
3.390618380E-1,8.545279503E0,-3.607021332E0,3.037466049E0,9.760051469E0
3.414657450E-1,8.717654228E0,-3.547168732E0,2.240231037E0,9.674633655E0
3.438700160E-1,8.801448822E0,-3.602233171E0,2.319236279E0,9.788791657E0
3.462743910E-1,8.904395103E0,-3.635750532E0,3.298422813E0,1.016791656E1
3.486787130E-1,9.038464546E0,-3.595050812E0,1.869145989E0,9.905147067E0
3.510826720E-1,9.067193985E0,-3.671662092E0,3.492344856E0,1.038708727E1
3.534863180E-1,9.218021393E0,-3.647721052E0,2.503582478E0,1.022475978E1
3.558902760E-1,9.241962433E0,-3.678844213E0,2.714262962E0,1.031091595E1
3.582938180E-1,9.304209709E0,-3.705179214E0,3.480374336E0,1.060234299E1
3.606972550E-1,9.344908714E0,-3.693208933E0,2.082220554E0,1.026171299E1
3.631010570E-1,9.304209709E0,-3.779396296E0,3.669508457E0,1.069193373E1
3.655049630E-1,9.402367592E0,-3.733908653E0,2.465276718E0,1.041269319E1
3.679093910E-1,9.335332870E0,-3.779396296E0,2.807632923E0,1.045538516E1
3.703133490E-1,9.347302437E0,-3.786578894E0,3.324758053E0,1.061905168E1
3.727170990E-1,9.361667633E0,-3.772214174E0,1.967304111E0,1.028303001E1
3.751217340E-1,9.308998108E0,-3.829672575E0,3.485162735E0,1.065223906E1
3.775259530E-1,9.344908714E0,-3.748273134E0,2.065462112E0,1.027827827E1
3.799299110E-1,9.287450790E0,-3.774608374E0,2.515552521E0,1.033597673E1
3.823343380E-1,9.313785553E0,-3.741090775E0,2.759750843E0,1.040954304E1
3.847384010E-1,9.301815987E0,-3.693208933E0,1.402296782E0,1.010593930E1
3.871426200E-1,9.265903473E0,-3.721938133E0,2.790874004E0,1.036816128E1
3.895466820E-1,9.332939148E0,-3.628568411E0,1.167675018E0,1.008135540E1
3.919506930E-1,9.234780312E0,-3.647721052E0,1.713529468E0,1.007587314E1
3.943553280E-1,9.282662392E0,-3.571109772E0,1.653677106E0,1.008242501E1
3.967595470E-1,9.292238235E0,-3.530410051E0,4.015634358E-1,9.948403879E0
3.991635050E-1,9.258721352E0,-3.537592649E0,1.684800386E0,1.005370753E1
4.015679840E-1,9.342514992E0,-3.429857969E0,-2.698023617E-2,9.952247987E0
4.039727760E-1,9.289844513E0,-3.446616888E0,6.122441292E-1,9.927498271E0
4.063780360E-1,9.344908714E0,-3.417887688E0,3.225581944E-1,9.955567232E0
4.087827760E-1,9.335332870E0,-3.353246927E0,-8.313974142E-1,9.954090939E0
4.111868380E-1,9.277874947E0,-3.379581928E0,3.800165653E-1,9.881545938E0
4.135913700E-1,9.308998108E0,-3.276635647E0,-1.410769224E0,9.969155267E0
4.159954320E-1,9.179717064E0,-3.317335367E0,-5.297409296E-1,9.775098197E0
4.183991820E-1,9.143804550E0,-3.274241686E0,-9.870138168E-1,9.762377607E0
4.208033490E-1,9.057616234E0,-3.247906685E0,-1.853677630E0,9.799256626E0
4.232074630E-1,8.909182549E0,-3.243118286E0,-6.853573918E-1,9.505843711E0
4.256118910E-1,8.846936226E0,-3.144960403E0,-2.404320240E0,9.692255276E0
4.280156410E-1,8.648226738E0,-3.164113045E0,-1.358099103E0,9.308483778E0
4.304189740E-1,8.605133057E0,-3.087501764E0,-1.959017873E0,9.349798559E0
4.328231930E-1,8.492609978E0,-3.056378603E0,-2.574301243E0,9.385781869E0
4.352269430E-1,8.384875298E0,-2.994132042E0,-1.446680784E0,9.020191003E0
4.376305880E-1,8.380087852E0,-2.886397600E0,-3.134520531E0,9.401190482E0
4.400347550E-1,8.277140617E0,-2.891185760E0,-1.860859871E0,8.962857321E0
4.424387130E-1,8.317840576E0,-2.752328157E0,-2.500084400E0,9.111103344E0
4.448429840E-1,8.293899536E0,-2.714022636E0,-2.871169567E0,9.186854906E0
4.472468380E-1,8.320234299E0,-2.673322916E0,-1.741155028E0,8.910924477E0
4.496503800E-1,8.399239540E0,-2.536859035E0,-3.261407852E0,9.360537367E0
4.520548070E-1,8.432757378E0,-2.546435595E0,-1.894377232E0,9.010238417E0
4.544588700E-1,8.653015137E0,-2.436307192E0,-2.581483364E0,9.352770715E0
4.568624630E-1,8.811024666E0,-2.421942234E0,-2.598242283E0,9.500043306E0
4.592665780E-1,8.973823547E0,-2.390819073E0,-1.547232985E0,9.414852883E0
4.616706930E-1,9.201262474E0,-2.295055389E0,-3.096214771E0,9.975823588E0
4.640751200E-1,9.328150749E0,-2.335754871E0,-1.659755588E0,9.758326487E0
4.664789740E-1,9.591500282E0,-2.271114349E0,-2.648518085E0,1.020634538E1
4.688824630E-1,9.761482239E0,-2.295055389E0,-2.694006443E0,1.038323097E1
4.712867340E-1,1.000328541E1,-2.275902271E0,-1.695667028E0,1.039811217E1
4.736905360E-1,1.022833157E1,-2.254355669E0,-3.153673172E0,1.093830611E1
4.760941300E-1,1.037676525E1,-2.304631472E0,-1.666937828E0,1.075951974E1
4.784983490E-1,1.061138725E1,-2.309419870E0,-2.770617485E0,1.120764386E1
4.809026720E-1,1.071193981E1,-2.395607233E0,-2.555148602E0,1.127002098E1
4.833070470E-1,1.083403873E1,-2.433912754E0,-1.856071591E0,1.125812277E1
4.857107450E-1,1.099923134E1,-2.426730633E0,-3.333230495E0,1.174659683E1
4.881142860E-1,1.106387138E1,-2.546435595E0,-1.750731349E0,1.148732538E1
4.905186610E-1,1.124821758E1,-2.546435595E0,-2.940598488E0,1.190184240E1
4.929225160E-1,1.129370594E1,-2.656563997E0,-2.564724922E0,1.188204276E1
4.953259530E-1,1.138468075E1,-2.692475557E0,-1.896771431E0,1.185150295E1
4.977299110E-1,1.144213963E1,-2.733175278E0,-3.294925213E0,1.221676465E1
5.001335570E-1,1.142059231E1,-2.843303919E0,-1.657361507E0,1.188533353E1
5.025373590E-1,1.149959755E1,-2.862456560E0,-2.966933727E0,1.221626363E1
5.049411610E-1,1.147805023E1,-2.939067841E0,-2.303768158E0,1.207025702E1
5.073448070E-1,1.147805023E1,-2.986949921E0,-1.784248710E0,1.199379216E1
5.097492340E-1,1.146368694E1,-3.001314402E0,-3.019603729E0,1.222873719E1
5.121533490E-1,1.139904594E1,-3.068349123E0,-1.279093862E0,1.187388293E1
5.145572030E-1,1.137271023E1,-3.068349123E0,-2.705976963E0,1.208617456E1
5.169614220E-1,1.125300598E1,-3.152142525E0,-1.839313030E0,1.183001346E1
5.193655360E-1,1.119554806E1,-3.111442804E0,-1.552021146E0,1.172306028E1
5.217701200E-1,1.113569450E1,-3.111442804E0,-2.547966480E0,1.183963266E1
5.241740780E-1,1.096571350E1,-3.176083565E0,-8.625206947E-1,1.144894411E1
5.265776720E-1,1.091783142E1,-3.132989883E0,-2.287009716E0,1.158641800E1
5.289823070E-1,1.071672726E1,-3.173689365E0,-1.274305582E0,1.124919562E1
5.313867860E-1,1.061378193E1,-3.125807524E0,-1.221635461E0,1.113173089E1
5.337909010E-1,1.041507053E1,-3.121019363E0,-2.033235073E0,1.106112566E1
5.361952240E-1,1.018044949E1,-3.168901443E0,-4.267947078E-1,1.067078450E1
5.385997030E-1,1.002483273E1,-3.101866484E0,-1.944653392E0,1.067241883E1
5.410045990E-1,9.754300117E0,-3.159324884E0,-7.404217124E-1,1.027987981E1
5.434089740E-1,9.524466515E0,-3.111442804E0,-9.415259361E-1,1.006394604E1
5.458127760E-1,9.316179276E0,-3.104260683E0,-1.652573228E0,9.957842585E0
5.482174630E-1,9.060011864E0,-3.137778044E0,-2.137199342E-1,9.590367158E0
5.506220470E-1,8.890030861E0,-3.049196243E0,-1.920712352E0,9.592673370E0
5.530263180E-1,8.629074097E0,-3.118625164E0,-7.595744133E-1,9.206720153E0
5.554307970E-1,8.492609978E0,-3.077925682E0,-1.334158182E0,9.131157035E0
5.578352760E-1,8.298687935E0,-3.097078323E0,-2.026052713E0,9.086528775E0
5.602404320E-1,8.150253296E0,-3.149748564E0,-8.768852949E-1,8.781598523E0
5.626451200E-1,8.095190048E0,-3.077925682E0,-2.732311726E0,9.081368608E0
5.650495470E-1,7.901268482E0,-3.159324884E0,-1.532868385E0,8.646447990E0
5.674549110E-1,7.884509563E0,-3.123413324E0,-2.466566563E0,8.832052562E0
5.698594430E-1,7.774380684E0,-3.161719084E0,-2.914263248E0,8.884277847E0
5.722633490E-1,7.673828602E0,-3.202418566E0,-2.028446674E0,8.559072730E0
5.746676720E-1,7.657069683E0,-3.171295404E0,-3.898238182E0,9.158825885E0
5.770721510E-1,7.499059200E0,-3.274241686E0,-2.643730164E0,8.599177675E0
5.794769430E-1,7.482300758E0,-3.238330126E0,-3.883873463E0,9.030840477E0
5.818815260E-1,7.398507118E0,-3.286211967E0,-4.199894428E0,9.120099225E0
5.842859530E-1,7.336260796E0,-3.302970886E0,-3.543911457E0,8.791453097E0
5.866907450E-1,7.345837116E0,-3.291000366E0,-5.339485645E0,9.659301906E0
5.890949110E-1,7.266831875E0,-3.365217209E0,-3.958090305E0,8.932973258E0
5.914988700E-1,7.321896076E0,-3.300576687E0,-5.358638287E0,9.654997302E0
5.939030880E-1,7.264437675E0,-3.343670607E0,-5.473555088E0,9.690820046E0
5.963072030E-1,7.245284557E0,-3.334094048E0,-4.970794201E0,9.397825622E0
5.987118380E-1,7.183038235E0,-3.302970886E0,-6.694545269E0,1.035966174E1
6.011162130E-1,7.068121433E0,-3.322123528E0,-5.246115685E0,9.408324777E0
6.035200680E-1,7.084880352E0,-3.264665127E0,-6.773550510E0,1.033124167E1
6.059242340E-1,7.022633553E0,-3.281423807E0,-6.634693146E0,1.020315036E1
6.083279320E-1,6.948416710E0,-3.281423807E0,-6.261213779E0,9.912166008E0
6.107313180E-1,6.957993031E0,-3.255088806E0,-7.750343323E0,1.091224504E1
6.131353800E-1,6.771253109E0,-3.353246927E0,-6.124749660E0,9.726597145E0
6.155394430E-1,6.732947826E0,-3.307759047E0,-7.501356602E0,1.060868546E1
6.179437660E-1,6.541419506E0,-3.384370089E0,-6.912408352E0,1.010076825E1
6.203480880E-1,6.412138462E0,-3.403522730E0,-6.651451588E0,9.845877048E0
6.227520470E-1,6.239763260E0,-3.408311129E0,-8.004117012E0,1.070593851E1
6.251566300E-1,6.014718056E0,-3.484922409E0,-6.493441105E0,9.512428442E0
6.275607450E-1,5.923742294E0,-3.451404810E0,-8.138187408E0,1.064110014E1
6.299644430E-1,5.703485012E0,-3.539986610E0,-7.446292400E0,1.002539361E1
6.323685570E-1,5.593356609E0,-3.539986610E0,-7.400804520E0,9.929201927E0
6.347728280E-1,5.523927689E0,-3.561533213E0,-8.549972534E0,1.078426290E1
6.371776200E-1,5.399434566E0,-3.645326853E0,-7.029719353E0,9.584323434E0
6.395820470E-1,5.392252445E0,-3.604627371E0,-8.686434746E0,1.084084284E1
6.419860570E-1,5.286911964E0,-3.693208933E0,-7.695278645E0,1.004034580E1
6.443908490E-1,5.325217724E0,-3.662085533E0,-7.853289127E0,1.017069144E1
6.467949630E-1,5.279729843E0,-3.697997093E0,-8.772623062E0,1.088621353E1
6.491987130E-1,5.234241962E0,-3.705179214E0,-7.331375599E0,9.740364988E0
6.516033490E-1,5.277335644E0,-3.650115013E0,-8.971333504E0,1.102988830E1
6.540078280E-1,5.217483044E0,-3.712361574E0,-7.805407047E0,1.009594656E1
6.564125160E-1,5.246212482E0,-3.642932892E0,-8.099881172E0,1.031512387E1
6.588164740E-1,5.248606682E0,-3.630962372E0,-8.722347260E0,1.080791847E1
6.612197550E-1,5.236636162E0,-3.630962372E0,-7.254764557E0,9.655975083E0
6.636239220E-1,5.294094086E0,-3.544774771E0,-8.832474709E0,1.089061384E1
6.660277240E-1,5.222271442E0,-3.549562931E0,-7.439110279E0,9.757657391E0
6.684310570E-1,5.246212482E0,-3.492104530E0,-7.800619125E0,1.002831981E1
6.708343910E-1,5.219877243E0,-3.429857969E0,-8.147763252E0,1.026630850E1
6.732378280E-1,5.176783562E0,-3.439434290E0,-6.663422108E0,9.112079371E0
6.756420990E-1,5.198330879E0,-3.324517488E0,-8.051999092E0,1.014444428E1
6.780462660E-1,5.064260960E0,-3.374793768E0,-6.388100624E0,8.822913443E0
6.804497550E-1,5.057078838E0,-3.293394327E0,-6.826220512E0,9.111409279E0
6.828541300E-1,4.966102600E0,-3.288606167E0,-6.921984673E0,9.131866039E0
6.852584010E-1,4.908644676E0,-3.283818007E0,-5.593260288E0,8.134052736E0
6.876622550E-1,4.911038876E0,-3.235936165E0,-7.065630436E0,9.193079960E0
6.900665260E-1,4.834427834E0,-3.314941406E0,-5.375397205E0,7.953327864E0
6.924709010E-1,4.946949959E0,-3.324517488E0,-6.117567539E0,8.541039926E0
6.948755880E-1,4.954132080E0,-3.393946648E0,-6.076868057E0,8.543455033E0
6.972799110E-1,4.990043640E0,-3.494498491E0,-4.970794201E0,7.862623622E0
6.996837130E-1,5.052290440E0,-3.549562931E0,-6.424012184E0,8.910273185E0
7.020880360E-1,4.982861519E0,-3.719544172E0,-4.721807957E0,7.807649335E0
7.044920470E-1,4.975678921E0,-3.755455256E0,-5.710570812E0,8.454078536E0
7.068959010E-1,4.834427834E0,-3.875160217E0,-5.552560329E0,8.319824842E0
7.092999630E-1,4.705146313E0,-3.913465977E0,-4.731384754E0,7.735607246E0
7.117037130E-1,4.568682671E0,-3.918254137E0,-6.297125340E0,8.710876211E0
7.141079840E-1,4.343636990E0,-4.014018059E0,-4.760113716E0,7.591982999E0
7.165120990E-1,4.238296509E0,-3.954165459E0,-6.064897537E0,8.389372081E0
7.189159530E-1,4.041980743E0,-4.002047539E0,-5.851822853E0,8.160748957E0
7.213205880E-1,3.946216822E0,-3.975712538E0,-5.358638287E0,7.752026940E0
7.237249630E-1,3.883970022E0,-3.915860176E0,-6.883678913E0,8.820670010E0
7.261290780E-1,3.778629780E0,-3.908677816E0,-5.282027245E0,7.579948357E0
7.285338180E-1,3.795388460E0,-3.863189936E0,-6.926773071E0,8.792576143E0
7.309385050E-1,3.759476900E0,-3.788972855E0,-6.629904747E0,8.511499210E0
7.333435570E-1,3.704412699E0,-3.772214174E0,-6.802279472E0,8.615293334E0
7.357484010E-1,3.690047979E0,-3.712361574E0,-6.814249992E0,8.592559892E0
7.381528800E-1,3.630195379E0,-3.633356333E0,-7.029719353E0,8.706121462E0
7.405578800E-1,3.611042738E0,-3.547168732E0,-7.135059834E0,8.748206359E0
7.429624630E-1,3.572737217E0,-3.470557690E0,-7.307434559E0,8.843518628E0
7.453665780E-1,3.551190138E0,-3.384370089E0,-7.407986641E0,8.884997376E0
7.477706410E-1,3.575131178E0,-3.319729567E0,-7.534873962E0,8.976440997E0
7.501749630E-1,3.532037497E0,-3.209600925E0,-7.652184486E0,9.018467408E0
7.525803280E-1,3.527249098E0,-3.135383844E0,-7.716825485E0,9.045524508E0
7.549852240E-1,3.508096457E0,-3.022861242E0,-7.752737045E0,9.030468567E0
7.573894950E-1,3.479367495E0,-2.934279680E0,-7.795830727E0,9.027235021E0
7.597944430E-1,3.481761456E0,-2.848092079E0,-7.848501205E0,9.046173915E0
7.621988700E-1,3.465002775E0,-2.761904478E0,-7.850894928E0,9.015038089E0
7.646027240E-1,3.476973057E0,-2.699657917E0,-7.865259647E0,9.013312589E0
7.670071510E-1,3.445849895E0,-2.630228996E0,-7.889200687E0,9.001748361E0
7.694118910E-1,3.455426455E0,-2.558406115E0,-7.937082767E0,9.026776650E0
7.718169430E-1,3.443455935E0,-2.474612474E0,-7.958629608E0,9.017809097E0
7.742212660E-1,3.436273336E0,-2.398001671E0,-8.023269653E0,9.051587838E0
7.766251200E-1,3.457820415E0,-2.330966473E0,-8.078334808E0,9.091172642E0
7.790297550E-1,3.436273336E0,-2.268720150E0,-8.111851692E0,9.097098627E0
7.814340260E-1,3.426697254E0,-2.223232269E0,-8.171704292E0,9.135741176E0
7.838377760E-1,3.412332773E0,-2.199291229E0,-8.212404251E0,9.161030534E0
7.862418380E-1,3.429091215E0,-2.165773869E0,-8.260286331E0,9.202259140E0
7.886462660E-1,3.433879375E0,-2.153803349E0,-8.312955856E0,9.248547535E0
7.910513180E-1,3.467396975E0,-2.168168068E0,-8.356050491E0,9.303084132E0
7.934560050E-1,3.508096457E0,-2.158591509E0,-8.363231659E0,9.322548033E0
7.958602240E-1,3.541613817E0,-2.192109108E0,-8.435054779E0,9.407365194E0
7.982651720E-1,3.639771938E0,-2.216049910E0,-8.494908333E0,9.503803688E0
8.006697030E-1,3.704412699E0,-2.280690670E0,-8.547577858E0,9.590897279E0
8.030740260E-1,3.809752941E0,-2.314208031E0,-8.631371498E0,9.714440294E0
8.054788180E-1,3.905516863E0,-2.354907513E0,-8.741499901E0,9.859638527E0
8.078830360E-1,4.030010223E0,-2.431518793E0,-8.825293541E0,1.000195342E1
8.102874110E-1,4.164079666E0,-2.474612474E0,-8.921056747E0,1.015128169E1
8.126916820E-1,4.283784866E0,-2.553617716E0,-8.983304024E0,1.027480060E1
8.150956930E-1,4.403489590E0,-2.608682156E0,-9.028792381E0,1.037858541E1
8.175007450E-1,4.496859550E0,-2.670928717E0,-9.059915543E0,1.046124637E1
8.199054320E-1,4.556712151E0,-2.723598719E0,-9.043155670E0,1.048619474E1
8.223094430E-1,4.595017433E0,-2.752328157E0,-9.024003029E0,1.049390900E1
8.247136610E-1,4.595017433E0,-2.819362879E0,-8.968938828E0,1.046445679E1
8.271177240E-1,4.575864792E0,-2.864850760E0,-8.906692505E0,1.041513705E1
8.295224110E-1,4.484889030E0,-2.893579721E0,-8.717558861E0,1.022168605E1
8.319266820E-1,4.425036430E0,-2.946249962E0,-8.411113739E0,9.950284950E0
8.343305360E-1,4.267025948E0,-3.022861242E0,-8.061574936E0,9.609068164E0
8.367351720E-1,4.154503345E0,-3.082713604E0,-7.793436527E0,9.354179500E0
8.391393910E-1,4.051557064E0,-3.142565966E0,-7.623455524E0,9.187377734E0
8.415432450E-1,4.022828102E0,-3.190448046E0,-7.589938164E0,9.163474559E0
8.439475160E-1,4.044374466E0,-3.197630405E0,-7.609091282E0,9.191304323E0
8.463518380E-1,4.152109146E0,-3.223965645E0,-7.724007607E0,9.343139641E0
8.487565780E-1,4.298149109E0,-3.216783285E0,-7.956235409E0,9.598096809E0
8.511609010E-1,4.458554268E0,-3.183265924E0,-8.140581131E0,9.812285629E0
8.535648070E-1,4.635717392E0,-3.132989883E0,-8.399143219E0,1.009213100E1
8.559693910E-1,4.800909996E0,-3.101866484E0,-8.600248337E0,1.032640227E1
8.583732970E-1,4.870338917E0,-3.063560724E0,-8.758257866E0,1.047915485E1
8.607769950E-1,4.896674156E0,-3.051590443E0,-8.865993500E0,1.057806517E1
8.631814220E-1,4.899068356E0,-3.034831762E0,-8.909087181E0,1.061050936E1
8.655859010E-1,4.887097836E0,-3.032437563E0,-8.923451424E0,1.061637359E1
8.679907450E-1,4.851186275E0,-3.015678883E0,-8.901904106E0,1.057696668E1
8.703951720E-1,4.832033157E0,-3.006102562E0,-8.911480904E0,1.057353720E1
8.727991820E-1,4.817668438E0,-2.991737843E0,-8.937815666E0,1.058512982E1
8.752041300E-1,4.836821556E0,-3.003708363E0,-8.973727226E0,1.062755320E1
8.776085570E-1,4.855974197E0,-3.001314402E0,-9.064702988E0,1.071247935E1
8.800123590E-1,4.889491558E0,-2.996526003E0,-9.160467148E0,1.080742588E1
8.824164220E-1,4.970890999E0,-3.003708363E0,-9.294536591E0,1.095994670E1
8.848202760E-1,5.033137798E0,-2.972584963E0,-9.450153351E0,1.111189164E1
8.872243380E-1,5.090596199E0,-2.967797041E0,-9.612952232E0,1.127523124E1
8.896281930E-1,5.181571484E0,-2.972584963E0,-9.699139595E0,1.139114802E1
8.920319430E-1,5.267759323E0,-2.974979401E0,-9.797297478E0,1.151463541E1
8.944364220E-1,5.325217724E0,-2.979767323E0,-9.799691200E0,1.154430183E1
8.968403800E-1,5.423375607E0,-2.996526003E0,-9.792509079E0,1.158815797E1
8.992441820E-1,5.528716087E0,-2.989343882E0,-9.773356438E0,1.161986981E1
9.016485050E-1,5.598145008E0,-3.003708363E0,-9.689562798E0,1.158659219E1
9.040527760E-1,5.681938171E0,-3.027649403E0,-9.581828117E0,1.154393834E1
9.064574630E-1,5.737002850E0,-3.044408083E0,-9.330448151E0,1.136832815E1
9.088617340E-1,5.787278652E0,-3.058772802E0,-9.081461906E0,1.119471463E1
9.112656930E-1,5.823190212E0,-3.106654644E0,-8.810929298E0,1.100878388E1
9.136701720E-1,5.823190212E0,-3.142565966E0,-8.382385254E0,1.067940296E1
9.160742340E-1,5.816008091E0,-3.211995125E0,-7.884412766E0,1.031052023E1
9.184778280E-1,5.794461250E0,-3.307759047E0,-7.410381317E0,9.971499504E0
9.208819950E-1,5.775308132E0,-3.350852728E0,-6.874102592E0,9.583093680E0
9.232863180E-1,5.816008091E0,-3.439434290E0,-6.481470585E0,9.362965304E0
9.256909530E-1,5.906983852E0,-3.520833731E0,-6.124749660E0,9.208761415E0
9.280951200E-1,5.995564938E0,-3.583080292E0,-5.825487614E0,9.095139869E0
9.304986610E-1,6.167940617E0,-3.621385813E0,-5.720147133E0,9.158493865E0
9.329031410E-1,6.361862659E0,-3.662085533E0,-5.763241291E0,9.332690776E0
9.353073070E-1,6.620425224E0,-3.630962372E0,-5.899704456E0,9.582297771E0
9.377107450E-1,6.883776188E0,-3.604627371E0,-6.091232777E0,9.873339345E0
9.401146510E-1,7.149521351E0,-3.590262651E0,-6.313883781E0,1.019170103E1
9.425185050E-1,7.388930798E0,-3.580686331E0,-6.529352665E0,1.049047469E1
9.449227240E-1,7.568488121E0,-3.623780012E0,-6.649057388E0,1.070624856E1
9.473267860E-1,7.736074924E0,-3.674056053E0,-6.718486309E0,1.088501729E1
9.497304320E-1,7.908450603E0,-3.700391054E0,-6.704121590E0,1.100825741E1
9.521349110E-1,8.049701691E0,-3.736302614E0,-6.593993187E0,1.105614764E1
9.545390260E-1,8.200530052E0,-3.736302614E0,-6.345006943E0,1.102124147E1
9.569427760E-1,8.325022697E0,-3.714755774E0,-6.119961739E0,1.097995196E1
9.593468910E-1,8.389663696E0,-3.681238413E0,-5.918857574E0,1.090737586E1
9.617512130E-1,8.423180580E0,-3.657297373E0,-5.717752934E0,1.081750867E1
9.641560050E-1,8.451910019E0,-3.640538931E0,-5.485525608E0,1.071351006E1
9.665603800E-1,8.468668938E0,-3.630962372E0,-5.305968285E0,1.063275791E1
9.689641300E-1,8.456698418E0,-3.595050812E0,-5.200627804E0,1.055872473E1
9.713688700E-1,8.442333221E0,-3.609415293E0,-5.143169403E0,1.052392800E1
9.737732450E-1,8.389663696E0,-3.599838972E0,-5.107258320E0,1.046085011E1
9.761769430E-1,8.372904778E0,-3.642932892E0,-5.131198883E0,1.047404871E1
9.785813180E-1,8.339387894E0,-3.686026573E0,-5.174292564E0,1.048358173E1
9.809856410E-1,8.363328934E0,-3.702785254E0,-5.282027245E0,1.056199324E1
9.833901720E-1,8.368116379E0,-3.753061295E0,-5.406519890E0,1.064618702E1
9.857942860E-1,8.332205772E0,-3.760243654E0,-5.588471413E0,1.071429410E1
9.881979840E-1,8.344175339E0,-3.786578894E0,-5.803940773E0,1.084662022E1
9.906025680E-1,8.358540535E0,-3.824884415E0,-6.026591778E0,1.099157628E1
9.930069430E-1,8.336993217E0,-3.856007576E0,-6.280365944E0,1.112731984E1
9.954111090E-1,8.284323692E0,-3.867978096E0,-6.536534786E0,1.123910853E1
9.978158490E-1,8.193347931E0,-3.875160217E0,-6.747215748E0,1.129923614E1
1.000220536E0,8.121524811E0,-3.856007576E0,-6.938743591E0,1.135667743E1
1.002625693E0,8.018578529E0,-3.848825216E0,-7.077600956E0,1.136677142E1
1.005030328E0,7.901268482E0,-3.834460735E0,-7.178153038E0,1.134279568E1
1.007434234E0,7.738469124E0,-3.793761015E0,-7.240400314E0,1.125610606E1
1.009839078E0,7.604399681E0,-3.745879173E0,-7.254764557E0,1.115751379E1
1.012243661E0,7.443994999E0,-3.721938133E0,-7.249976158E0,1.103757398E1
1.014647828E0,7.259649754E0,-3.669267893E0,-7.194911957E0,1.085968690E1
1.017052307E0,7.087274075E0,-3.650115013E0,-7.132665634E0,1.069708897E1
1.019456526E0,6.938840389E0,-3.618991852E0,-7.106329918E0,1.057092867E1
1.021861370E0,6.778435707E0,-3.595050812E0,-7.015354633E0,1.039647929E1
1.024265953E0,6.615637302E0,-3.568715811E0,-6.967472553E0,1.024929574E1
1.026669859E0,6.438473701E0,-3.609415293E0,-6.907619953E0,1.010925496E1
1.029074599E0,6.280463219E0,-3.633356333E0,-6.900437832E0,1.001306840E1
1.031479026E0,6.105693817E0,-3.671662092E0,-6.921984673E0,9.933502470E0
1.033883193E0,5.926136494E0,-3.700391054E0,-7.008172035E0,9.895780059E0
1.036287776E0,5.780096531E0,-3.762637854E0,-7.096754074E0,9.896003128E0
1.038692411E0,5.629268169E0,-3.810519934E0,-7.190123558E0,9.894776353E0
1.041097151E0,5.526322365E0,-3.882342577E0,-7.307434559E0,9.950448362E0
1.043501474E0,5.432951927E0,-3.966135979E0,-7.472627640E0,1.005422126E1
1.045905588E0,5.387464046E0,-4.033170700E0,-7.685702324E0,1.021573565E1
1.048310380E0,5.368311882E0,-4.121752262E0,-7.860471725E0,1.037278313E1
1.050714807E0,5.382676125E0,-4.203151703E0,-7.949053288E0,1.047984421E1
1.053118557E0,5.435346127E0,-4.291733265E0,-8.042423248E0,1.061331869E1
1.055522463E0,5.480834007E0,-4.373132706E0,-8.207615852E0,1.079485012E1
1.057926578E0,5.531110287E0,-4.421014786E0,-8.432661057E0,1.101128173E1
1.060331161E0,5.514351845E0,-4.468896866E0,-8.672071457E0,1.120642400E1
1.062735380E0,5.387464046E0,-4.478472710E0,-8.885146141E0,1.131491532E1
1.065139078E0,5.155236721E0,-4.464108467E0,-8.997668266E0,1.128994085E1
1.067543609E0,4.939767838E0,-4.406650066E0,-9.131737709E0,1.127867478E1
1.069947724E0,4.712327957E0,-4.306097984E0,-9.225108147E0,1.121833922E1
1.072351630E0,4.516012192E0,-4.188786983E0,-9.265807152E0,1.112634193E1
1.074756005E0,4.367578030E0,-4.066688061E0,-9.239472389E0,1.099916086E1
1.077160172E0,4.235902786E0,-3.956559896E0,-9.193984032E0,1.086860529E1
1.079564599E0,4.135350704E0,-3.810519934E0,-9.059915543E0,1.066317294E1
1.081968661E0,4.027616024E0,-3.659691572E0,-8.889934540E0,1.042333773E1
1.084372411E0,3.972551584E0,-3.516045570E0,-8.693617821E0,1.018443584E1
1.086776891E0,3.905516863E0,-3.355641127E0,-8.458995819E0,9.902928840E0
1.089181109E0,3.895940542E0,-3.180871725E0,-8.257891655E0,9.668974725E0
1.091584963E0,3.855241060E0,-2.984555483E0,-8.073545456E0,9.431468141E0
1.093989078E0,3.749900341E0,-2.766692638E0,-7.870047569E0,9.146255489E0
1.096393141E0,3.577525377E0,-2.577558756E0,-7.621061802E0,8.804719187E0
1.098797724E0,3.369238615E0,-2.395607233E0,-7.352922440E0,8.435411742E0
1.101202047E0,3.168134451E0,-2.261537790E0,-7.096754074E0,8.094167497E0
1.103606213E0,3.031670809E0,-2.168168068E0,-6.881285191E0,7.825858837E0
1.106010849E0,2.919148207E0,-2.137044668E0,-6.728062630E0,7.639058379E0
1.108414703E0,2.902389526E0,-2.139438868E0,-6.622722626E0,7.540657704E0
1.110818036E0,2.940695286E0,-2.201685429E0,-6.574840546E0,7.531509523E0
1.113221891E0,3.072370529E0,-2.297449350E0,-6.593993187E0,7.628792849E0
1.115625745E0,3.225592852E0,-2.424336672E0,-6.689757347E0,7.812471498E0
1.118030068E0,3.366844654E0,-2.560800076E0,-6.833403111E0,8.036711891E0
1.120434599E0,3.563160658E0,-2.706840038E0,-7.034507751E0,8.337109581E0
1.122838818E0,3.737929821E0,-2.857668400E0,-7.214064598E0,8.612845990E0
1.125243713E0,3.960581064E0,-2.977373362E0,-7.398410797E0,8.904349321E0
1.127648088E0,4.180838585E0,-3.089895964E0,-7.546844482E0,9.164154624E0
1.130051838E0,4.401095867E0,-3.176083565E0,-7.690490723E0,9.412799753E0
1.132455901E0,4.559106350E0,-3.243118286E0,-7.812589645E0,9.609361264E0
1.134860016E0,4.688387871E0,-3.269453287E0,-7.937082767E0,9.780980957E0
1.137264651E0,4.695569515E0,-3.298182487E0,-7.941870689E0,9.797943194E0
1.139668870E0,4.611776352E0,-3.326911926E0,-7.944264889E0,9.769757863E0
1.142072568E0,4.434613228E0,-3.288606167E0,-7.968205929E0,9.693968781E0
1.144476943E0,4.202384949E0,-3.238330126E0,-7.949053288E0,9.556896433E0
1.146881005E0,3.934246302E0,-3.190448046E0,-8.004117012E0,9.472230035E0
1.149284859E0,3.627801418E0,-3.130595684E0,-8.051999092E0,9.369965947E0
1.151689234E0,3.297415972E0,-3.075531244E0,-8.145369530E0,9.310149800E0
1.154093818E0,2.995759487E0,-3.003708363E0,-8.195645332E0,9.228512407E0
1.156498922E0,2.706073523E0,-2.927097321E0,-8.224374771E0,9.139533523E0
1.158903245E0,2.461875439E0,-2.855274439E0,-8.200433731E0,9.025549079E0
1.161307099E0,2.258376837E0,-2.802603960E0,-8.138187408E0,8.898592540E0
1.163711995E0,2.117125273E0,-2.764298677E0,-8.013693810E0,8.737439847E0
1.166116370E0,1.959114671E0,-2.742751598E0,-7.841318607E0,8.535050915E0
1.168520328E0,1.863350749E0,-2.699657917E0,-7.721613407E0,8.389490002E0
1.170924755E0,1.767586827E0,-2.692475557E0,-7.621061802E0,8.273715659E0
1.173329182E0,1.722098947E0,-2.642199516E0,-7.611485004E0,8.239025855E0
1.175734130E0,1.681399345E0,-2.620652676E0,-7.630638123E0,8.241453899E0
1.178138818E0,1.707734466E0,-2.579952955E0,-7.743160725E0,8.338408257E0
1.180543036E0,1.755616307E0,-2.553617716E0,-7.968205929E0,8.549588164E0
1.182948036E0,1.813074708E0,-2.522494555E0,-8.219586372E0,8.787025595E0
1.185352255E0,1.916020989E0,-2.510524035E0,-8.530818939E0,9.096633396E0
1.187755641E0,2.026149511E0,-2.481794834E0,-8.868387222E0,9.429362617E0
1.190159443E0,2.136277914E0,-2.431518793E0,-9.196377754E0,9.749324631E0
1.192563453E0,2.212889194E0,-2.378848553E0,-9.438181877E0,9.981737132E0
1.194967828E0,2.287106276E0,-2.338149071E0,-9.608162880E0,1.014961034E1
1.197371474E0,2.354140997E0,-2.263931751E0,-9.679986000E0,1.021613899E1
1.199774859E0,2.399628639E0,-2.199291229E0,-9.718292236E0,1.024891719E1
1.202179338E0,2.492998600E0,-2.129862547E0,-9.672803879E0,1.021344660E1
1.204583505E0,2.612703562E0,-2.081980467E0,-9.711110115E0,1.026968949E1
1.206987411E0,2.777896404E0,-2.043674707E0,-9.323266029E0,9.940654113E0
1.209391474E0,3.010123968E0,-1.979034066E0,-1.086985302E1,1.145125001E1
1.211795380E0,3.192075491E0,-1.976639986E0,-8.913875580E0,9.672312517E0
1.214199755E0,3.496125937E0,-1.900028825E0,-1.052989101E1,1.125662520E1
1.216603713E0,3.656530619E0,-1.892846465E0,-1.018992901E1,1.099034745E1
1.219007307E0,3.843270540E0,-1.892846465E0,-9.931366920E0,1.081599025E1
1.221411838E0,3.979733706E0,-1.866511464E0,-1.117869186E1,1.201188150E1
1.223816109E0,4.010857582E0,-1.931152105E0,-9.668016434E0,1.064363043E1
1.226219963E0,4.056344986E0,-1.897634745E0,-1.078127193E1,1.167436409E1
1.228624234E0,3.970157862E0,-1.964669466E0,-9.864332199E0,1.081328485E1
1.231028453E0,3.917487383E0,-1.969457746E0,-9.371148109E0,1.034620163E1
1.233432932E0,3.819329500E0,-1.979034066E0,-1.001516056E1,1.089987590E1
1.235836943E0,3.673289299E0,-1.988610506E0,-8.200433731E0,9.202974486E0
1.238240745E0,3.656530619E0,-1.933546185E0,-9.301718712E0,1.017992083E1
1.240645432E0,3.589495897E0,-1.943122625E0,-8.176492691E0,9.138667247E0
1.243049391E0,3.642165899E0,-1.907211065E0,-7.972994328E0,8.970588890E0
1.245452984E0,3.716383219E0,-1.892846465E0,-8.662493706E0,9.614217034E0
1.247857151E0,3.812146902E0,-1.931152105E0,-7.079995155E0,8.269712441E0
1.250261370E0,4.034798622E0,-1.907211065E0,-8.518848419E0,9.617059444E0
1.252665745E0,4.144927025E0,-1.988610506E0,-7.419957161E0,8.728731641E0
1.255069755E0,4.341243267E0,-2.038886547E0,-7.594726562E0,8.982389605E0
1.257473349E0,4.422642708E0,-2.093950987E0,-8.322532654E0,9.654478185E0
1.259877776E0,4.453765869E0,-2.182532549E0,-6.902832031E0,8.499915811E0
1.262281995E0,4.537559032E0,-2.218444109E0,-8.518848419E0,9.903621289E0
1.264685588E0,4.463342190E0,-2.352513552E0,-7.302646637E0,8.876057200E0
1.267089547E0,4.489676952E0,-2.366878033E0,-7.767101765E0,9.278317767E0
1.269493193E0,4.391519070E0,-2.402789593E0,-8.384778976E0,9.765416328E0
1.271897047E0,4.302937508E0,-2.481794834E0,-7.115906715E0,8.678174069E0
1.274300693E0,4.276602745E0,-2.465036392E0,-8.928238869E0,1.020192064E1
1.276703974E0,4.106621742E0,-2.510524035E0,-7.680913925E0,9.064409070E0
1.279108193E0,4.061133862E0,-2.433912754E0,-8.509272575E0,9.737785133E0
1.281512203E0,3.936640024E0,-2.445883274E0,-9.074278831E0,1.018930891E1
1.283915432E0,3.850452662E0,-2.460247993E0,-7.987358570E0,9.201994502E0
1.286319182E0,3.860028982E0,-2.474612474E0,-9.826025963E0,1.084316913E1
1.288723088E0,3.809752941E0,-2.603893757E0,-8.432661057E0,9.612713075E0
1.291127255E0,3.905516863E0,-2.675716877E0,-9.323266029E0,1.045637663E1
1.293531266E0,3.848058462E0,-2.843303919E0,-9.531552315E0,1.066500917E1
1.295934911E0,3.795388460E0,-2.986949921E0,-8.442237854E0,9.726161801E0
1.298339391E0,3.769053221E0,-3.053984642E0,-1.010374165E1,1.120795162E1
1.300743661E0,3.546402216E0,-3.185659885E0,-8.502090454E0,9.747355522E0
1.303147516E0,3.486549616E0,-3.204812765E0,-9.488457680E0,1.060460665E1
1.305551734E0,3.342903614E0,-3.269453287E0,-9.423818588E0,1.052010866E1
1.307955797E0,3.242351532E0,-3.269453287E0,-8.499695778E0,9.666798672E0
1.310360016E0,3.175316572E0,-3.267059326E0,-9.699139595E0,1.071585838E1
1.312763713E0,3.117858410E0,-3.262271166E0,-9.043155670E0,1.010653841E1
1.315166995E0,3.103493929E0,-3.231147766E0,-9.141314507E0,1.018015822E1
1.317571474E0,3.069976330E0,-3.207206726E0,-8.980910301E0,1.001836711E1
1.319975797E0,3.050823689E0,-3.149748564E0,-8.944997787E0,9.961999127E0
1.322379755E0,3.053217649E0,-3.111442804E0,-8.887539864E0,9.899069611E0
1.324783922E0,3.081946850E0,-3.058772802E0,-8.909087181E0,9.910919324E0
1.327188036E0,3.175316572E0,-3.025255442E0,-8.966545105E0,9.981670048E0
1.329592516E0,3.326144934E0,-2.994132042E0,-9.129343987E0,1.016725078E1
1.331996318E0,3.534431696E0,-2.955826521E0,-9.328054428E0,1.040392797E1
1.334399599E0,3.745112181E0,-2.960614681E0,-9.510004997E0,1.064101967E1
1.336804026E0,3.991704226E0,-2.951038361E0,-9.737444878E0,1.092978329E1
1.339208245E0,4.197597027E0,-2.922309160E0,-9.993613243E0,1.122639823E1
1.341612099E0,4.417854309E0,-2.881609440E0,-1.028808689E1,1.156139445E1
1.344016422E0,4.571076870E0,-2.864850760E0,-1.054904366E1,1.184839380E1
1.346420641E0,4.659657955E0,-2.800209999E0,-1.074057198E1,1.203800127E1
1.348825016E0,4.714722633E0,-2.716416597E0,-1.082436657E1,1.211505016E1
1.351228818E0,4.712327957E0,-2.658958435E0,-1.083872986E1,1.211421313E1
1.353632151E0,4.642899513E0,-2.594317675E0,-1.070944881E1,1.195739495E1
1.356036161E0,4.561500072E0,-2.546435595E0,-1.049398041E1,1.172242475E1
1.358439911E0,4.499253750E0,-2.498553514E0,-1.019950581E1,1.142435874E1
1.360843453E0,4.437006950E0,-2.479400873E0,-9.888273239E0,1.111811167E1
1.363247516E0,4.377154827E0,-2.479400873E0,-9.502822876E0,1.075223492E1
1.365651838E0,4.372365952E0,-2.505735874E0,-9.103009224E0,1.040485815E1
1.368056474E0,4.396306992E0,-2.560800076E0,-8.782198906E0,1.014949407E1
1.370460432E0,4.417854309E0,-2.637411356E0,-8.538001060E0,9.968492236E0
1.372863974E0,4.487283230E0,-2.706840038E0,-8.327321053E0,9.839053292E0
1.375268297E0,4.590229034E0,-2.795421839E0,-8.150157928E0,9.762666649E0
1.377672047E0,4.750634193E0,-2.886397600E0,-8.047210693E0,9.780460945E0
1.380075276E0,4.877521038E0,-2.972584963E0,-8.004117012E0,9.833227445E0
1.382478974E0,5.076231480E0,-3.085107803E0,-7.994541168E0,9.959854652E0
1.384882932E0,5.291700363E0,-3.202418566E0,-8.020875931E0,1.012877229E1
1.387287255E0,5.509562969E0,-3.283818007E0,-8.085515976E0,1.032057718E1
1.389690745E0,5.705879211E0,-3.381976128E0,-8.181281090E0,1.053224479E1
1.392094026E0,5.890224934E0,-3.453799009E0,-8.284227371E0,1.073554379E1
1.394498401E0,5.988383293E0,-3.537592649E0,-8.346473694E0,1.086457175E1
1.396902255E0,6.007535458E0,-3.597444773E0,-8.351262093E0,1.089842510E1
1.399305745E0,5.976412773E0,-3.623780012E0,-8.281832695E0,1.083688350E1
1.401709755E0,5.849524975E0,-3.669267893E0,-8.138187408E0,1.067288919E1
1.404113453E0,5.653209209E0,-3.719544172E0,-7.934688568E0,1.042847380E1
1.406517620E0,5.442528725E0,-3.745879173E0,-7.659367085E0,1.011526736E1
1.408921318E0,5.246212482E0,-3.796154976E0,-7.343346119E0,9.790723683E0
1.411324391E0,5.140872002E0,-3.846431017E0,-7.032113075E0,9.522300710E0
1.413728349E0,5.078625679E0,-3.906283617E0,-6.689757347E0,9.263063416E0
1.416131995E0,5.104960442E0,-3.978106499E0,-6.368947983E0,9.080167996E0
1.418535432E0,5.164813042E0,-4.085840702E0,-6.119961739E0,8.990179068E0
1.420939130E0,5.380281925E0,-4.179210663E0,-5.997862816E0,9.076761191E0
1.423342932E0,5.629268169E0,-4.286945343E0,-5.993074417E0,9.272728911E0
1.425747203E0,5.957259655E0,-4.349191666E0,-6.131932259E0,9.591923893E0
1.428150901E0,6.309192181E0,-4.411438465E0,-6.330642223E0,9.967132299E0
1.430554234E0,6.697036266E0,-4.466502190E0,-6.529352665E0,1.036495937E1
1.432958453E0,7.089668751E0,-4.514384270E0,-6.787915230E0,1.080365038E1
1.435362463E0,7.441601276E0,-4.526354790E0,-7.008172035E0,1.117943614E1
1.437766109E0,7.791139126E0,-4.528749466E0,-7.048871994E0,1.144106713E1
1.440169911E0,8.044913292E0,-4.464108467E0,-6.981837273E0,1.154967298E1
1.442573557E0,8.236441612E0,-4.437773228E0,-6.795097828E0,1.156313782E1
1.444977984E0,8.353752136E0,-4.377920628E0,-6.455135822E0,1.142891693E1
1.447381891E0,8.444727898E0,-4.303703785E0,-6.105597019E0,1.127446719E1
1.449785432E0,8.475851059E0,-4.239063263E0,-5.686629772E0,1.105203450E1
1.452190016E0,8.449515343E0,-4.191181183E0,-5.267662525E0,1.080317443E1
1.454593818E0,8.423180580E0,-4.133722782E0,-4.925306797E0,1.059699402E1
1.456997411E0,8.382481575E0,-4.119358540E0,-4.616467476E0,1.041858359E1
1.459401474E0,8.322628975E0,-4.100205421E0,-4.391422749E0,1.026462037E1
1.461805276E0,8.298687935E0,-4.126540661E0,-4.211864948E0,1.018019477E1
1.464209755E0,8.205318451E0,-4.138511181E0,-4.168771267E0,1.009124272E1
1.466613922E0,8.145465851E0,-4.198363781E0,-4.161588669E0,1.006447677E1
1.469017672E0,8.056883812E0,-4.241457462E0,-4.226229668E0,1.003814502E1
1.471422203E0,7.963514805E0,-4.303703785E0,-4.345934391E0,1.004124395E1
1.473826266E0,7.846203327E0,-4.392285347E0,-4.527885914E0,1.006761283E1
1.476229911E0,7.783957005E0,-4.480867386E0,-4.786448479E0,1.017733994E1
1.478633766E0,7.654675484E0,-4.552690029E0,-5.054587841E0,1.024060064E1
1.481037568E0,7.558911800E0,-4.665212631E0,-5.356244087E0,1.037259405E1
1.483441891E0,7.496665001E0,-4.784917831E0,-5.691418171E0,1.055877197E1
1.485845693E0,7.463147640E0,-4.861528873E0,-6.074473858E0,1.078110701E1
1.488249234E0,7.455965519E0,-4.938139915E0,-6.416830063E0,1.100692308E1
1.490653557E0,7.448782921E0,-5.041086197E0,-6.761579990E0,1.125237224E1
1.493057307E0,7.465542316E0,-5.091362476E0,-7.077600956E0,1.147818493E1
1.495460953E0,7.494271278E0,-5.163185120E0,-7.379257679E0,1.171648524E1
1.497864963E0,7.472723961E0,-5.201490879E0,-7.570785522E0,1.184119522E1
1.500268713E0,7.451177120E0,-5.246978760E0,-7.702461243E0,1.193225611E1
1.502672828E0,7.408083439E0,-5.273313999E0,-7.788648605E0,1.197291058E1
1.505076734E0,7.302742958E0,-5.275707722E0,-7.793436527E0,1.191221220E1
1.507480224E0,7.163885593E0,-5.254160881E0,-7.738372803E0,1.178176035E1
1.509884495E0,7.020239830E0,-5.208673477E0,-7.645002842E0,1.161292879E1
1.512288141E0,6.790406227E0,-5.141638279E0,-7.525297642E0,1.136556930E1
1.514691474E0,6.543814182E0,-5.031509876E0,-7.355316639E0,1.105614212E1
1.517095432E0,6.256522179E0,-4.911804676E0,-7.120695114E0,1.067586970E1
1.519499182E0,5.997959614E0,-4.756188393E0,-6.881285191E0,1.029314983E1
1.521903297E0,5.674756050E0,-4.543113708E0,-6.646663666E0,9.849917577E0
1.524307099E0,5.315640926E0,-4.334827423E0,-6.414435387E0,9.391046192E0
1.526710693E0,4.949344158E0,-4.112175941E0,-6.275578022E0,8.988263352E0
1.529115536E0,4.638111115E0,-3.889525175E0,-6.136720181E0,8.619734066E0
1.531520120E0,4.389125347E0,-3.678844213E0,-5.961951256E0,8.266993337E0
1.533924286E0,4.183232784E0,-3.508863211E0,-5.799152851E0,7.965031786E0
1.536328661E0,4.003674984E0,-3.386764288E0,-5.645930290E0,7.705589826E0
1.538732984E0,3.893546343E0,-3.262271166E0,-5.588471413E0,7.552028139E0
1.541137984E0,3.857634783E0,-3.190448046E0,-5.629171848E0,7.533118912E0
1.543542307E0,3.840876341E0,-3.109048843E0,-5.708176613E0,7.549953379E0
1.545945901E0,3.819329500E0,-3.051590443E0,-5.897310734E0,7.660140727E0
1.548350224E0,3.802570581E0,-3.003708363E0,-6.134325981E0,7.817401243E0
1.550754078E0,3.814541101E0,-2.979767323E0,-6.390494823E0,8.016742555E0
1.553157307E0,3.864817381E0,-3.008496523E0,-6.704121590E0,8.302596642E0
1.555560641E0,3.915093184E0,-3.049196243E0,-7.036901474E0,8.610664012E0
1.557964130E0,3.996492624E0,-3.147354364E0,-7.326587677E0,8.919455128E0
1.560368453E0,4.113803864E0,-3.259876966E0,-7.599514484E0,9.235951519E0
1.562772359E0,4.240691185E0,-3.401128769E0,-7.838924408E0,9.539385436E0
1.565175693E0,4.398701668E0,-3.590262651E0,-8.056787491E0,9.856489585E0
1.567580016E0,4.573470592E0,-3.733908653E0,-8.233950615E0,1.013196180E1
1.569984234E0,4.764998436E0,-3.884736776E0,-8.408720016E0,1.041647552E1
1.572387776E0,4.932585716E0,-4.037959099E0,-8.609824181E0,1.071282353E1
1.574791734E0,5.057078838E0,-4.169634342E0,-8.765440941E0,1.094499209E1
1.577195693E0,5.143266201E0,-4.296521187E0,-8.921056747E0,1.115789115E1
1.579599911E0,5.155236721E0,-4.399467945E0,-9.019215584E0,1.128175667E1
1.582003922E0,5.107354641E0,-4.492837906E0,-9.076673508E0,1.134269218E1
1.584407516E0,4.987649441E0,-4.567054749E0,-9.107796669E0,1.134401147E1
1.586811734E0,4.836821556E0,-4.600571632E0,-9.067096710E0,1.125932258E1
1.589215797E0,4.657264233E0,-4.562266350E0,-8.944997787E0,1.106875647E1
1.591619599E0,4.537559032E0,-4.495231628E0,-8.803746223E0,1.087669513E1
1.594023870E0,4.456159592E0,-4.428196907E0,-8.628976822E0,1.067359017E1
1.596427932E0,4.403489590E0,-4.294127464E0,-8.396749496E0,1.040844145E1
1.598832255E0,4.398701668E0,-4.157663822E0,-8.178886414E0,1.017491660E1
1.601236370E0,4.322090149E0,-4.040352821E0,-7.939476490E0,9.901525191E0
1.603639807E0,4.207173824E0,-3.882342577E0,-7.712037086E0,9.604603662E0
1.606043713E0,4.116197586E0,-3.731514692E0,-7.489386082E0,9.325137444E0
1.608447620E0,3.996492624E0,-3.590262651E0,-7.285887718E0,9.052408467E0
1.610851213E0,3.907911062E0,-3.446616888E0,-7.132665634E0,8.833224547E0
1.613254807E0,3.848058462E0,-3.329305887E0,-7.003384113E0,8.656744230E0
1.615658505E0,3.764265060E0,-3.247906685E0,-6.965078831E0,8.557506202E0
1.618062724E0,3.690047979E0,-3.159324884E0,-6.931560993E0,8.464297113E0
1.620466213E0,3.587101698E0,-3.094684124E0,-6.924378395E0,8.389957364E0
1.622869286E0,3.472184896E0,-3.044408083E0,-6.881285191E0,8.287133063E0
1.625273193E0,3.304598093E0,-3.020467043E0,-6.828615189E0,8.165388852E0
1.627676891E0,3.182499170E0,-2.979767323E0,-6.737638950E0,8.025153761E0
1.630080484E0,3.081946850E0,-3.001314402E0,-6.732851028E0,7.989841519E0
1.632484703E0,3.065188169E0,-3.010890722E0,-6.737638950E0,7.991033730E0
1.634889130E0,3.041247129E0,-3.063560724E0,-6.792703629E0,8.048317277E0
1.637293974E0,3.029276609E0,-3.132989883E0,-6.852556229E0,8.120940170E0
1.639698401E0,2.988577127E0,-3.149748564E0,-7.010566711E0,8.246244896E0
1.642102151E0,2.964636087E0,-3.188054085E0,-7.307434559E0,8.505960017E0
1.644506422E0,2.943089247E0,-3.166507006E0,-7.616273403E0,8.757634468E0
1.646910068E0,2.888024807E0,-3.154536486E0,-7.903564930E0,8.986552527E0
1.649313349E0,2.763531685E0,-3.144960403E0,-8.075940132E0,9.096630823E0
1.651717203E0,2.617491722E0,-3.159324884E0,-8.166915894E0,9.139535648E0
1.654120953E0,2.507363081E0,-3.154536486E0,-8.193250656E0,9.130570977E0
1.656525120E0,2.406811237E0,-3.140172005E0,-8.164522171E0,9.072642550E0
1.658928766E0,2.344564438E0,-3.121019363E0,-8.109457970E0,9.000058490E0
1.661331995E0,2.351746798E0,-3.070743322E0,-8.071151733E0,8.950065243E0
1.663736109E0,2.466663361E0,-3.032437563E0,-8.023269653E0,8.924850791E0
1.666139807E0,2.612703562E0,-2.963008881E0,-8.030452728E0,8.949514654E0
1.668543036E0,2.854507446E0,-2.867244720E0,-8.123822212E0,9.075560169E0
1.670946734E0,3.170528650E0,-2.793027878E0,-8.411113739E0,9.412762133E0
1.673350484E0,3.524855137E0,-2.680505037E0,-8.842052460E0,9.888963681E0
1.675754651E0,3.860028982E0,-2.556012154E0,-9.385512352E0,1.046522164E1
1.678158713E0,4.223932266E0,-2.436307192E0,-1.000079632E1,1.112623582E1
1.680562620E0,4.492071152E0,-2.342936993E0,-1.059213829E1,1.174144159E1
1.682967203E0,4.717116833E0,-2.261537790E0,-1.109489918E1,1.226631698E1
1.685371474E0,4.820062637E0,-2.225626230E0,-1.143725491E1,1.260940981E1
1.687775276E0,4.870338917E0,-2.189714909E0,-1.166708851E1,1.283105634E1
1.690179391E0,4.844003677E0,-2.170562029E0,-1.173651695E1,1.288105358E1
1.692583505E0,4.671628475E0,-2.172955990E0,-1.156414223E1,1.265998562E1
1.694988088E0,4.501647472E0,-2.172955990E0,-1.123375607E1,1.229568392E1
1.697392307E0,4.226325989E0,-2.180138588E0,-1.069987202E1,1.170906046E1
1.699796213E0,3.919881582E0,-2.170562029E0,-1.011571217E1,1.106365418E1
1.702200797E0,3.589495897E0,-2.172955990E0,-9.533946037E0,1.041644592E1
1.704604807E0,3.299809933E0,-2.160985470E0,-9.045550346E0,9.868160156E0
1.707008245E0,3.002941608E0,-2.170562029E0,-8.681647301E0,9.439279511E0
1.709412099E0,2.758743763E0,-2.163379908E0,-8.425478935E0,9.125764355E0
1.711816422E0,2.526515961E0,-2.184926510E0,-8.272256851E0,8.921178183E0
1.714221213E0,2.334988117E0,-2.182532549E0,-8.226768494E0,8.825833540E0
1.716625536E0,2.191342115E0,-2.230414629E0,-8.229162216E0,8.803172182E0
1.719029391E0,2.078819513E0,-2.266326189E0,-8.305773735E0,8.856839295E0
1.721433453E0,2.038120031E0,-2.326178551E0,-8.382385254E0,8.934731247E0
1.723836891E0,2.071637154E0,-2.383636713E0,-8.418296814E0,8.991169319E0
1.726240172E0,2.141066074E0,-2.469824314E0,-8.447025299E0,9.057396562E0
1.728644026E0,2.241618156E0,-2.551223755E0,-8.480543137E0,9.135272656E0
1.731047932E0,2.303864956E0,-2.618258476E0,-8.535607338E0,9.220610816E0
1.733452255E0,2.363717318E0,-2.642199516E0,-8.640948296E0,9.339933902E0
1.735856318E0,2.399628639E0,-2.690081596E0,-8.786988258E0,9.497679677E0
1.738259911E0,2.445116758E0,-2.682899237E0,-8.973727226E0,9.680099411E0
1.740664234E0,2.471451759E0,-2.675716877E0,-9.193984032E0,9.889230353E0
1.743068088E0,2.488210440E0,-2.649381876E0,-9.380723953E0,1.006023844E1
1.745471682E0,2.548062801E0,-2.632622957E0,-9.579434395E0,1.025616356E1
1.747875901E0,2.605521202E0,-2.632622957E0,-9.711110115E0,1.039351259E1
1.750279911E0,2.595944881E0,-2.666140556E0,-9.814056396E0,1.049585338E1
1.752684286E0,2.629462242E0,-2.699657917E0,-9.900242805E0,1.059325409E1
1.755088401E0,2.641432762E0,-2.749933958E0,-1.000797844E1,1.070975893E1
1.757492099E0,2.605521202E0,-2.778663158E0,-1.008937740E1,1.078449100E1
1.759896474E0,2.557639122E0,-2.764298677E0,-1.019471836E1,1.086807929E1
1.762300328E0,2.552851200E0,-2.747539759E0,-1.035033417E1,1.100888011E1
1.764703818E0,2.560033321E0,-2.704446077E0,-1.056580353E1,1.120285693E1
1.767107724E0,2.593550682E0,-2.658958435E0,-1.076690674E1,1.138959375E1
1.769511838E0,2.653403282E0,-2.570376635E0,-1.096561718E1,1.157117735E1
1.771916422E0,2.744378805E0,-2.510524035E0,-1.113799286E1,1.174262453E1
1.774320276E0,2.842537165E0,-2.436307192E0,-1.127684975E1,1.188204319E1
1.776723818E0,2.933512926E0,-2.345331430E0,-1.135824966E1,1.196310633E1
1.779128401E0,3.074764729E0,-2.328572512E0,-1.144683075E1,1.207917060E1
1.781532463E0,3.220804691E0,-2.302237511E0,-1.155696011E1,1.221626814E1
1.783936057E0,3.397967815E0,-2.285478830E0,-1.172454739E1,1.241912276E1
1.786340276E0,3.558372736E0,-2.273508310E0,-1.185622215E1,1.258574036E1
1.788744859E0,3.730747700E0,-2.256749630E0,-1.198550320E1,1.275396739E1
1.791149807E0,3.879182100E0,-2.235202789E0,-1.205014420E1,1.285496637E1
1.793554078E0,4.053951263E0,-2.220838070E0,-1.208845043E1,1.294207388E1
1.795957932E0,4.130562782E0,-2.172955990E0,-1.202141476E1,1.289564653E1
1.798362568E0,4.204779625E0,-2.141832829E0,-1.176764011E1,1.267852410E1
1.800766682E0,4.204779625E0,-2.127468348E0,-1.136064434E1,1.229920864E1
1.803170276E0,4.130562782E0,-2.168168068E0,-1.082915401E1,1.179122887E1
1.805574234E0,4.041980743E0,-2.247173309E0,-1.026414585E1,1.125788996E1
1.807978245E0,3.955793142E0,-2.335754871E0,-9.670410156E0,1.070611427E1
1.810382516E0,3.886364222E0,-2.481794834E0,-9.045550346E0,1.015308394E1
1.812786526E0,3.826511621E0,-2.668534517E0,-8.396749496E0,9.605658216E0
1.815190172E0,3.783417940E0,-2.860062599E0,-7.810195446E0,9.137470234E0
1.817594807E0,3.790600061E0,-3.070743322E0,-7.386440277E0,8.851983582E0
1.819998922E0,3.802570581E0,-3.314941406E0,-7.051266193E0,8.669990455E0
1.822402620E0,3.903122663E0,-3.554351091E0,-6.878890991E0,8.671039123E0
1.824806995E0,4.097044945E0,-3.791366816E0,-6.893255711E0,8.870017695E0
1.827211422E0,4.348425388E0,-4.021200180E0,-7.113512516E0,9.256398574E0
1.829616266E0,4.714722633E0,-4.222304344E0,-7.532480240E0,9.838430873E0
1.832020693E0,5.136083603E0,-4.392285347E0,-8.080728531E0,1.053421563E1
1.834424755E0,5.578992367E0,-4.567054749E0,-8.679253578E0,1.128328798E1
1.836829651E0,5.950077534E0,-4.660424232E0,-9.277777672E0,1.196662589E1
1.839234130E0,6.285251141E0,-4.720276833E0,-9.742233276E0,1.251784744E1
1.841638088E0,6.450444221E0,-4.732247353E0,-1.002713108E1,1.282753887E1
1.844042255E0,6.448050022E0,-4.734642029E0,-1.002473736E1,1.282534769E1
1.846446370E0,6.177516460E0,-4.703518391E0,-9.723079681E0,1.244279202E1
1.848850953E0,5.715455532E0,-4.626907349E0,-9.122160912E0,1.171701853E1
1.851254911E0,5.107354641E0,-4.547901630E0,-8.403932571E0,1.083487717E1
1.853658349E0,4.520800591E0,-4.459320545E0,-7.587543964E0,9.894139736E0
1.856062724E0,4.003674984E0,-4.406650066E0,-6.711304188E0,8.971598636E0
1.858466838E0,3.675683498E0,-4.404255867E0,-5.830275536E0,8.179256185E0
1.860870588E0,3.539219618E0,-4.447350025E0,-5.116834164E0,7.647678707E0
1.863274651E0,3.678077459E0,-4.538325310E0,-4.705049038E0,7.500809081E0
1.865678818E0,4.063527584E0,-4.612542152E0,-4.652379036E0,7.709243298E0
1.868083349E0,4.674022675E0,-4.689153671E0,-4.887000561E0,8.229059764E0
1.870487359E0,5.454499245E0,-4.749006271E0,-5.176686764E0,8.893970341E0
1.872891266E0,6.215822697E0,-4.794493675E0,-5.538195610E0,9.607040752E0
1.875296005E0,6.981934071E0,-4.820829391E0,-5.978709698E0,1.037943973E1
1.877700380E0,7.621158123E0,-4.866316795E0,-6.285154819E0,1.101209614E1
1.880104234E0,8.104765892E0,-4.880681992E0,-6.481470585E0,1.146811876E1
1.882508505E0,8.490215302E0,-4.916593552E0,-6.531746387E0,1.178644810E1
1.884912932E0,8.758355141E0,-4.887863636E0,-6.447953224E0,1.192376184E1
1.887317516E0,8.890030861E0,-4.859134674E0,-6.266001701E0,1.191245633E1
1.889721474E0,8.961853981E0,-4.820829391E0,-6.088838577E0,1.185871739E1
1.892124963E0,9.071981430E0,-4.729853153E0,-5.969133854E0,1.184495322E1
1.894529026E0,9.198868752E0,-4.679577351E0,-5.796758175E0,1.183723092E1
1.896932828E0,9.340120316E0,-4.693942070E0,-5.574107170E0,1.184658645E1
1.899336734E0,9.483766556E0,-4.705912113E0,-5.293997765E0,1.183696960E1
1.901740797E0,9.603471756E0,-4.732247353E0,-5.030646801E0,1.182912685E1
1.904144651E0,9.644171715E0,-4.806464195E0,-4.803206921E0,1.179758208E1
1.906548818E0,9.584319115E0,-4.823223114E0,-4.511126995E0,1.163928352E1
1.908952151E0,9.457431793E0,-4.873499393E0,-4.302840710E0,1.147643022E1
1.911355224E0,9.292238235E0,-4.923775196E0,-4.080189705E0,1.127994688E1
1.913759547E0,9.107893944E0,-4.978839874E0,-3.871902943E0,1.107854733E1
1.916163609E0,8.873271942E0,-5.072209358E0,-3.735439301E0,1.088190101E1
1.918567151E0,8.621891975E0,-5.156002998E0,-3.673192978E0,1.069643561E1
1.920970849E0,8.377692223E0,-5.232614517E0,-3.644463539E0,1.052844225E1
1.923374859E0,8.143072128E0,-5.316407681E0,-3.768956661E0,1.042970990E1
1.925779703E0,7.898873806E0,-5.354713440E0,-3.934149265E0,1.032195204E1
1.928183870E0,7.690587044E0,-5.426536560E0,-4.257352829E0,1.033041535E1
1.930587620E0,7.558911800E0,-5.457659245E0,-4.635620594E0,1.041211652E1
1.932992099E0,7.441601276E0,-5.467236042E0,-5.088105202E0,1.054309793E1
1.935396005E0,7.350625038E0,-5.469629765E0,-5.485525608E0,1.067892923E1
1.937799599E0,7.221343517E0,-5.424141884E0,-5.856610775E0,1.076424671E1
1.940203713E0,7.111215115E0,-5.400200844E0,-6.218119621E0,1.088101839E1
1.942607568E0,6.993904591E0,-5.349925041E0,-6.505411625E0,1.094791212E1
1.945011891E0,6.862229347E0,-5.297255039E0,-6.785521030E0,1.100883274E1
1.947416109E0,6.701824665E0,-5.220643997E0,-7.000989914E0,1.100833490E1
1.949819547E0,6.567755222E0,-5.144032478E0,-7.190123558E0,1.101337167E1
1.952223609E0,6.455232143E0,-5.055450916E0,-7.381651402E0,1.103251483E1
1.954627463E0,6.364256859E0,-4.981234074E0,-7.522903442E0,1.104131036E1
1.957031213E0,6.294827461E0,-4.921381474E0,-7.628243923E0,1.104694318E1
1.959435432E0,6.244551659E0,-4.871105194E0,-7.716825485E0,1.105764382E1
1.961839443E0,6.189486980E0,-4.825617313E0,-7.791042805E0,1.105878291E1
1.964243870E0,6.167940617E0,-4.794493675E0,-7.812589645E0,1.104840341E1
1.966648088E0,6.148787498E0,-4.746612072E0,-7.870047569E0,1.105782811E1
1.969051838E0,6.134423256E0,-4.691547871E0,-7.850894928E0,1.101264370E1
1.971456370E0,6.108088017E0,-4.617331028E0,-7.812589645E0,1.093915180E1
1.973860328E0,6.105693817E0,-4.502413750E0,-7.755131245E0,1.084865370E1
1.976263922E0,6.163152218E0,-4.368344307E0,-7.695278645E0,1.078351476E1
1.978667984E0,6.179911137E0,-4.176816463E0,-7.630638123E0,1.067069518E1
1.981072151E0,6.012324333E0,-3.982894897E0,-7.477415562E0,1.038861103E1
1.983476734E0,5.703485012E0,-3.743484735E0,-7.218852997E0,9.932535318E0
1.985880797E0,5.337188244E0,-3.494498491E0,-6.857344151E0,9.365909825E0
1.988284651E0,4.930191040E0,-3.281423807E0,-6.433588505E0,8.744460357E0
1.990689338E0,4.556712151E0,-3.101866484E0,-5.882946014E0,8.061901458E0
1.993093557E0,4.195203304E0,-2.953432322E0,-5.327515125E0,7.396276810E0
1.995497359E0,3.888757944E0,-2.852880239E0,-4.918124199E0,6.888345930E0
1.997901943E0,3.646954060E0,-2.764298677E0,-4.676320076E0,6.542903831E0
2.000306578E0,3.436273336E0,-2.735569239E0,-4.597314835E0,6.358192919E0
2.002711213E0,3.295021772E0,-2.749933958E0,-4.678714275E0,6.348989882E0
2.005115484E0,3.201651812E0,-2.740357637E0,-4.915730000E0,6.474915886E0
2.007519495E0,3.137011051E0,-2.773874998E0,-5.289209843E0,6.746181261E0
2.009924234E0,3.089129210E0,-2.840909719E0,-5.715359211E0,7.090755828E0
2.012328505E0,3.105887890E0,-2.917520761E0,-6.158267021E0,7.488839675E0
2.014732307E0,3.093917370E0,-2.996526003E0,-6.593993187E0,7.876054782E0
2.017136422E0,3.153769970E0,-3.085107803E0,-7.034507751E0,8.303520608E0
2.019540484E0,3.256716251E0,-3.183265924E0,-7.405592442E0,8.693801361E0
2.021945068E0,3.345297575E0,-3.283818007E0,-7.750343323E0,9.057720364E0
2.024349286E0,3.431485415E0,-3.372399569E0,-8.061574936E0,9.388139403E0
2.026753088E0,3.486549616E0,-3.489710569E0,-8.322532654E0,9.674639934E0
2.029157620E0,3.558372736E0,-3.585474253E0,-8.566730499E0,9.945175393E0
2.031561838E0,3.575131178E0,-3.686026573E0,-8.758257866E0,1.015260733E1
2.033965849E0,3.599072218E0,-3.767425776E0,-8.942604065E0,1.034973358E1
2.036370328E0,3.603860378E0,-3.827278376E0,-9.019215584E0,1.043945014E1
2.038774651E0,3.606254578E0,-3.863189936E0,-9.081461906E0,1.050724792E1
2.041179338E0,3.599072218E0,-3.887130737E0,-9.095826149E0,1.052602297E1
2.043583609E0,3.579919338E0,-3.908677816E0,-9.059915543E0,1.049645914E1
2.045987307E0,3.601466417E0,-3.896707296E0,-9.007245064E0,1.045396345E1
2.048391838E0,3.637377977E0,-3.877554655E0,-8.916269302E0,1.038103111E1
2.050796005E0,3.745112181E0,-3.872766256E0,-8.810929298E0,1.032747108E1
2.053200016E0,3.855241060E0,-3.839248896E0,-8.698406219E0,1.025987263E1
2.055604443E0,3.977339983E0,-3.788972855E0,-8.523636818E0,1.014041090E1
2.058008297E0,4.140138626E0,-3.736302614E0,-8.379991531E0,1.006603016E1
2.060412516E0,4.293361187E0,-3.695603132E0,-8.255497932E0,1.001217653E1
2.062816578E0,4.369972229E0,-3.630962372E0,-8.169310570E0,9.950787919E0
2.065220224E0,4.319695950E0,-3.590262651E0,-8.030452728E0,9.799894388E0
2.067624651E0,4.144927025E0,-3.516045570E0,-7.891594410E0,9.582288809E0
2.070028557E0,3.857634783E0,-3.427463770E0,-7.810195446E0,9.360983224E0
2.072432099E0,3.505702496E0,-3.331700087E0,-7.822165966E0,9.196545865E0
2.074836213E0,3.067582369E0,-3.211995125E0,-7.826953888E0,8.999343389E0
2.077240328E0,2.610309362E0,-3.152142525E0,-7.745554447E0,8.760327115E0
2.079644755E0,2.191342115E0,-3.056378603E0,-7.599514484E0,8.479153898E0
2.082048661E0,1.827439308E0,-2.989343882E0,-7.340951920E0,8.134204715E0
2.084452411E0,1.566482544E0,-2.931885481E0,-7.046478271E0,7.791192211E0
2.086856786E0,1.446777582E0,-2.888791561E0,-6.740033150E0,7.474378162E0
2.089260641E0,1.410866141E0,-2.855274439E0,-6.409647465E0,7.157284123E0
2.091664338E0,1.463536263E0,-2.836121559E0,-6.122355461E0,6.904256678E0
2.094068505E0,1.698157907E0,-2.821756840E0,-5.959557056E0,6.808992014E0
2.096472411E0,1.942355990E0,-2.828939438E0,-5.988286018E0,6.901826901E0
2.098876995E0,2.236830235E0,-2.840909719E0,-6.191784859E0,7.170242483E0
2.101281422E0,2.485816479E0,-2.895974159E0,-6.529352665E0,7.562962126E0
2.103685224E0,2.679738522E0,-2.951038361E0,-7.012960434E0,8.066674656E0
2.106089807E0,2.801837444E0,-3.003708363E0,-7.623455524E0,8.659655370E0
2.108494026E0,2.837749004E0,-3.056378603E0,-8.296197891E0,9.285535473E0
2.110897776E0,2.828172445E0,-3.085107803E0,-8.935421944E0,9.867026647E0
2.113301891E0,2.751561165E0,-3.077925682E0,-9.565070152E0,1.041802680E1
2.115706005E0,2.643826962E0,-3.068349123E0,-1.011571217E1,1.089643152E1
2.118110588E0,2.497786999E0,-3.010890722E0,-1.057537937E1,1.127577278E1
2.120514703E0,2.337382078E0,-2.929491282E0,-1.089618874E1,1.152268211E1
2.122918609E0,2.196130514E0,-2.793027878E0,-1.108532238E1,1.164080608E1
2.125323609E0,2.114730835E0,-2.668534517E0,-1.119066334E1,1.169718380E1
2.127728349E0,2.138671875E0,-2.544041634E0,-1.120981503E1,1.169213488E1
2.130132099E0,2.222465515E0,-2.450671673E0,-1.120502758E1,1.168322677E1
2.132535901E0,2.320623398E0,-2.371666431E0,-1.108292770E1,1.156898358E1
2.134940068E0,2.406811237E0,-2.335754871E0,-1.092970657E1,1.143271520E1
2.137344599E0,2.502574921E0,-2.273508310E0,-1.077648449E1,1.129443842E1
2.139748713E0,2.586368322E0,-2.220838070E0,-1.068311405E1,1.121384629E1
2.142152411E0,2.670161963E0,-2.115497828E0,-1.057777309E1,1.111280251E1
2.144556734E0,2.727620363E0,-2.019733667E0,-1.049398041E1,1.102918228E1
2.146960745E0,2.746773243E0,-1.928757906E0,-1.041497517E1,1.094242103E1
2.149364338E0,2.765925884E0,-1.840176344E0,-1.038385105E1,1.090233726E1
2.151768349E0,2.864084005E0,-1.765959263E0,-1.037188148E1,1.090401370E1
2.154172568E0,2.986182928E0,-1.698924422E0,-1.041497517E1,1.096701146E1
2.156577047E0,3.151375771E0,-1.646254301E0,-1.040779209E1,1.099833891E1
2.158981057E0,3.429091215E0,-1.593584180E0,-1.040300369E1,1.106890523E1
2.161384807E0,3.797782421E0,-1.562460780E0,-1.042933941E1,1.120872676E1
2.163789443E0,4.235902786E0,-1.516972899E0,-1.048200893E1,1.140686594E1
2.166193557E0,4.697963715E0,-1.552884459E0,-1.055862141E1,1.166048023E1
2.168597151E0,5.107354641E0,-1.584007740E0,-1.062804890E1,1.189746088E1
2.171001422E0,5.428164005E0,-1.670195341E0,-1.056819725E1,1.199755434E1
2.173405953E0,5.689120770E0,-1.761171103E0,-1.045806789E1,1.203490768E1
2.175810536E0,5.935712814E0,-1.873693705E0,-1.041258144E1,1.213116924E1
2.178214599E0,6.072176456E0,-2.007763147E0,-1.030005836E1,1.212409345E1
2.180618557E0,6.069782257E0,-2.110709667E0,-1.004149532E1,1.192178595E1
2.183023141E0,5.966835976E0,-2.268720150E0,-9.651257515E0,1.157138688E1
2.185427047E0,5.784884453E0,-2.409971714E0,-9.174832344E0,1.111082357E1
2.187830432E0,5.547868729E0,-2.572770596E0,-8.676858902E0,1.061536040E1
2.190234338E0,5.262970924E0,-2.706840038E0,-8.138187408E0,1.006260107E1
2.192638505E0,4.968497276E0,-2.843303919E0,-7.633032322E0,9.541149029E0
2.195043088E0,4.654870033E0,-2.998920441E0,-7.156606674E0,9.048666085E0
2.197447203E0,4.300543785E0,-3.077925682E0,-6.687363148E0,8.525792000E0
2.199850641E0,3.962975264E0,-3.192842245E0,-6.306701183E0,8.103943136E0
2.202254703E0,3.742718220E0,-3.307759047E0,-6.057714939E0,7.851440624E0
2.204658818E0,3.567948818E0,-3.429857969E0,-5.949980736E0,7.739280019E0
2.207062724E0,3.484155416E0,-3.554351091E0,-5.490313530E0,7.410552834E0
2.209467047E0,3.417120695E0,-3.714755774E0,-6.773550510E0,8.447313823E0
2.211871370E0,3.314174414E0,-3.913465977E0,-4.697866917E0,6.954776888E0
2.214275953E0,3.299809933E0,-4.052323341E0,-6.412041664E0,8.271901133E0
2.216680276E0,3.216016531E0,-4.279762745E0,-5.612412453E0,7.756178506E0
2.219084182E0,3.299809933E0,-4.406650066E0,-6.313883781E0,8.376899116E0
2.221488661E0,3.414726734E0,-4.538325310E0,-7.405592442E0,9.332714219E0
2.223892932E0,3.620619059E0,-4.693942070E0,-6.689757347E0,8.938390677E0
2.226296682E0,3.912698984E0,-4.760976791E0,-8.696012497E0,1.065817746E1
2.228700797E0,4.180838585E0,-4.875893116E0,-8.123822212E0,1.035616880E1
2.231104911E0,4.544741631E0,-4.892652512E0,-9.222714424E0,1.138644749E1
2.233509391E0,4.853579998E0,-4.837587833E0,-1.014204693E1,1.224012299E1
2.235913453E0,5.078625679E0,-4.758582115E0,-9.457335472E0,1.174213510E1
2.238317151E0,5.315640926E0,-4.543113708E0,-1.131036854E1,1.329738159E1
2.240721578E0,5.375493526E0,-4.351585865E0,-1.021387005E1,1.233512755E1
2.243125536E0,5.459287167E0,-4.054717541E0,-1.102786446E1,1.295601579E1
2.245529078E0,5.339581966E0,-3.805731535E0,-1.113559818E1,1.292270386E1
2.247932932E0,5.138478279E0,-3.575898170E0,-9.933761597E0,1.174183232E1
2.250336734E0,4.887097836E0,-3.300576687E0,-1.120981503E1,1.266639193E1
2.252741005E0,4.527982712E0,-3.147354364E0,-9.562676430E0,1.103871584E1
2.255144651E0,4.396306992E0,-2.891185760E0,-1.033836365E1,1.160035487E1
2.257547984E0,4.211961746E0,-2.737963676E0,-1.016598797E1,1.133950520E1
2.259952307E0,4.135350704E0,-2.599105835E0,-9.103009224E0,1.033059793E1
2.262356109E0,4.219144344E0,-2.433912754E0,-1.050834465E1,1.158233213E1
2.264759703E0,4.276602745E0,-2.378848553E0,-8.870780945E0,1.013109106E1
2.267163974E0,4.554317474E0,-2.268720150E0,-9.919396400E0,1.114824308E1
2.269568036E0,4.743451595E0,-2.230414629E0,-9.620134354E0,1.095545834E1
2.271972359E0,4.999619961E0,-2.213655710E0,-8.803746223E0,1.036351383E1
2.274376057E0,5.248606682E0,-2.189714909E0,-1.024738789E1,1.171971339E1
2.276779547E0,5.365917206E0,-2.242385149E0,-8.571518898E0,1.035819940E1
2.279184078E0,5.516745567E0,-2.220838070E0,-9.845179558E0,1.150192001E1
2.281587828E0,5.504775047E0,-2.278296471E0,-9.466912270E0,1.118550898E1
2.283991109E0,5.466469765E0,-2.323784351E0,-8.944997787E0,1.073756261E1
2.286395068E0,5.430558205E0,-2.362090111E0,-1.032399940E1,1.190190723E1
2.288799078E0,5.229453564E0,-2.455459833E0,-8.691224098E0,1.043617956E1
2.291203557E0,5.131295681E0,-2.462642193E0,-1.016838264E1,1.165293129E1
2.293607620E0,4.870338917E0,-2.560800076E0,-9.555493355E0,1.102657478E1
2.296011109E0,4.652476311E0,-2.560800076E0,-9.081461906E0,1.052027486E1
2.298415588E0,4.408277512E0,-2.575164795E0,-1.023781109E1,1.144015560E1
2.300819443E0,4.152109146E0,-2.625440836E0,-8.360837936E0,9.697245018E0
2.303222828E0,3.924669504E0,-2.548829556E0,-9.589011192E0,1.066999056E1
2.305626682E0,3.596678257E0,-2.627834797E0,-8.401537895E0,9.509334846E0
2.308030484E0,3.414726734E0,-2.661352396E0,-7.877230167E0,8.988543283E0
2.310434599E0,3.268686771E0,-2.730781078E0,-8.289014816E0,9.319294240E0
2.312838036E0,3.206440210E0,-2.833727360E0,-7.453474522E0,8.594507084E0
2.315241213E0,3.311780453E0,-2.970191002E0,-7.400804520E0,8.634919333E0
2.317645380E0,3.500914097E0,-3.130595684E0,-7.132665634E0,8.540020369E0
2.320049495E0,3.781023741E0,-3.288606167E0,-7.070418835E0,8.666134868E0
2.322453297E0,4.113803864E0,-3.470557690E0,-6.919590473E0,8.766349595E0
2.324857151E0,4.504041672E0,-3.650115013E0,-6.831008911E0,8.959487359E0
2.327261161E0,4.973285198E0,-3.810519934E0,-6.771156788E0,9.225084936E0
2.329665588E0,5.444922447E0,-3.944589376E0,-6.639481068E0,9.449321386E0
2.332069651E0,5.899801254E0,-4.107388020E0,-6.548505306E0,9.724258991E0
2.334473349E0,6.333133221E0,-4.193575382E0,-6.433588505E0,9.954180626E0
2.336877568E0,6.713795185E0,-4.191181183E0,-6.313883781E0,1.012453327E1
2.339281682E0,7.051362514E0,-4.160058022E0,-6.242060661E0,1.029519875E1
2.341685536E0,7.477512836E0,-4.100205421E0,-6.222908020E0,1.055696296E1
2.344089703E0,7.985061169E0,-3.999653578E0,-6.218119621E0,1.088225355E1
2.346493974E0,8.502186775E0,-3.973318338E0,-6.215725422E0,1.125653948E1
2.348898609E0,8.945095062E0,-3.997259378E0,-6.158267021E0,1.157225393E1
2.351302620E0,9.342514992E0,-4.128934383E0,-5.918857574E0,1.180523445E1
2.353706109E0,9.586712837E0,-4.286945343E0,-5.559742451E0,1.188249551E1
2.356110432E0,9.639382362E0,-4.411438465E0,-5.229357243E0,1.182051855E1
2.358514391E0,9.510101318E0,-4.552690029E0,-4.896577358E0,1.162520896E1
2.360917776E0,9.172533989E0,-4.643665791E0,-4.535068035E0,1.123680799E1
2.363321630E0,8.765536308E0,-4.708306313E0,-4.192712307E0,1.079729649E1
2.365725745E0,8.301081657E0,-4.737035751E0,-3.831203461E0,1.029687255E1
2.368130380E0,7.848598003E0,-4.789705753E0,-3.522364616E0,9.846259407E0
2.370534443E0,7.475118160E0,-4.811253071E0,-3.266195774E0,9.470669589E0
2.372938193E0,7.183038235E0,-4.861528873E0,-3.124944210E0,9.219315462E0
2.375342776E0,6.974751472E0,-4.914198875E0,-3.122550011E0,9.085528452E0
2.377746891E0,6.871805668E0,-4.983627796E0,-3.275772095E0,9.098842892E0
2.380150484E0,6.816740990E0,-5.074604034E0,-3.567852020E0,9.216785332E0
2.382554338E0,6.831105709E0,-5.165579319E0,-4.044278145E0,9.471187920E0
2.384958401E0,6.799982548E0,-5.242190361E0,-4.611679554E0,9.746174159E0
2.387363088E0,6.771253109E0,-5.314013481E0,-5.207809925E0,1.006031273E1
2.389767099E0,6.711400509E0,-5.412171364E0,-5.791970253E0,1.038659786E1
2.392170588E0,6.630001545E0,-5.507935524E0,-6.304306984E0,1.067888387E1
2.394575068E0,6.546208382E0,-5.584547043E0,-6.771156788E0,1.094936410E1
2.396979026E0,6.486355782E0,-5.637217045E0,-7.233217716E0,1.123256275E1
2.399382776E0,6.455232143E0,-5.673128128E0,-7.625849724E0,1.148947296E1
2.401786995E0,6.493537426E0,-5.706645966E0,-7.937082767E0,1.173580501E1
2.404191057E0,6.534237862E0,-5.689887047E0,-8.200433731E0,1.192971887E1
2.406595588E0,6.565360546E0,-5.665946007E0,-8.363231659E0,1.204784408E1
2.408999495E0,6.625213146E0,-5.634822845E0,-8.487725258E0,1.215261938E1
2.411402672E0,6.627607346E0,-5.591728687E0,-8.518848419E0,1.215579645E1
2.413806526E0,6.589301586E0,-5.522299767E0,-8.396749496E0,1.201749109E1
2.416210068E0,6.510296822E0,-5.445688725E0,-8.281832695E0,1.185867797E1
2.418613193E0,6.323556423E0,-5.371471882E0,-8.083122253E0,1.158347708E1
2.421016838E0,6.146393776E0,-5.290072441E0,-7.846106529E0,1.128381188E1
2.423420745E0,5.916560173E0,-5.182337761E0,-7.635426044E0,1.096184473E1
2.425825120E0,5.646027088E0,-5.088968277E0,-7.364892960E0,1.058380217E1
2.428229182E0,5.358735085E0,-4.976445198E0,-7.070418835E0,1.017211242E1
2.430632880E0,5.045108318E0,-4.856740952E0,-6.761579990E0,9.734475568E0
2.433037255E0,4.743451595E0,-4.732247353E0,-6.505411625E0,9.338890644E0
2.435441370E0,4.389125347E0,-4.583813190E0,-6.251636982E0,8.908351679E0
2.437845068E0,3.986916304E0,-4.413832188E0,-6.033773899E0,8.472534666E0
2.440248766E0,3.577525377E0,-4.243851185E0,-5.806334496E0,8.032588685E0
2.442652307E0,3.192075491E0,-4.102599621E0,-5.679447651E0,7.699142498E0
2.445056213E0,2.892813206E0,-3.939800978E0,-5.629171848E0,7.455063761E0
2.447459963E0,2.694103003E0,-3.803337336E0,-5.662688732E0,7.334140001E0
2.449863505E0,2.586368322E0,-3.683632612E0,-5.820699215E0,7.357920200E0
2.452267932E0,2.646220922E0,-3.573503733E0,-6.103203297E0,7.551258476E0
2.454672099E0,2.782684565E0,-3.472951889E0,-6.462317467E0,7.846417989E0
2.457075797E0,3.034065008E0,-3.398734808E0,-6.912408352E0,8.278788437E0
2.459479911E0,3.385997534E0,-3.343670607E0,-7.381651402E0,8.782590155E0
2.461884182E0,3.725959301E0,-3.343670607E0,-7.824560165E0,9.289060643E0
2.464288818E0,4.073104382E0,-3.374793768E0,-8.210010529E0,9.766457145E0
2.466693036E0,4.336454868E0,-3.456192970E0,-8.518848419E0,1.016468834E1
2.469096943E0,4.487283230E0,-3.568715811E0,-8.703193665E0,1.042194911E1
2.471501943E0,4.563894272E0,-3.674056053E0,-8.849234581E0,1.061304723E1
2.473906474E0,4.618958473E0,-3.779396296E0,-8.928238869E0,1.073927665E1
2.476310536E0,4.563894272E0,-3.920648336E0,-8.956969261E0,1.079017667E1
2.478715172E0,4.453765869E0,-4.037959099E0,-9.012033463E0,1.083318472E1
2.481119703E0,4.319695950E0,-4.097811222E0,-9.024003029E0,1.081131170E1
2.483524599E0,4.135350704E0,-4.162452221E0,-9.129343987E0,1.085228343E1
2.485929130E0,3.924669504E0,-4.212728024E0,-9.229896545E0,1.087846949E1
2.488333141E0,3.651742458E0,-4.222304344E0,-9.265807152E0,1.081749782E1
2.490737880E0,3.321356773E0,-4.200757504E0,-9.270595551E0,1.070615320E1
2.493142099E0,2.995759487E0,-4.148087502E0,-9.196377754E0,1.052399965E1
2.495545536E0,2.677344084E0,-4.085840702E0,-9.083856583E0,1.031400582E1
2.497949338E0,2.481028080E0,-3.975712538E0,-8.894721985E0,1.005374904E1
2.500353401E0,2.342170477E0,-3.858401537E0,-8.530818939E0,9.651315803E0
2.502757932E0,2.334988117E0,-3.765031815E0,-8.063969612E0,9.200828222E0
2.505161943E0,2.394840717E0,-3.702785254E0,-7.518115044E0,8.715958611E0
2.507565380E0,2.583974361E0,-3.635750532E0,-7.142241478E0,8.420642420E0
2.509969703E0,2.852113485E0,-3.602233171E0,-6.967472553E0,8.346035522E0
2.512373609E0,3.204046011E0,-3.559139252E0,-6.931560993E0,8.424958211E0
2.514776943E0,3.457820415E0,-3.460981369E0,-7.101541996E0,8.623619471E0
2.517180953E0,3.702018499E0,-3.372399569E0,-7.367287159E0,8.908138970E0
2.519585068E0,3.824117422E0,-3.298182487E0,-7.678520203E0,9.190296746E0
2.521989599E0,3.759476900E0,-3.231147766E0,-7.941870689E0,9.362013272E0
2.524393870E0,3.572737217E0,-3.195236206E0,-8.063969612E0,9.380916349E0
2.526797672E0,3.287839413E0,-3.171295404E0,-8.016087532E0,9.226302719E0
2.529202099E0,2.967030048E0,-3.121019363E0,-7.824560165E0,8.931280477E0
2.531606005E0,2.706073523E0,-3.077925682E0,-7.546844482E0,8.587858991E0
2.534009859E0,2.612703562E0,-3.049196243E0,-7.173365116E0,8.220765458E0
2.536414026E0,2.627068281E0,-3.025255442E0,-6.795097828E0,7.888410026E0
2.538817828E0,2.770714283E0,-2.972584963E0,-6.440771103E0,7.615553256E0
2.541221891E0,3.043641329E0,-2.939067841E0,-6.299519062E0,7.588531658E0
2.543625797E0,3.419514894E0,-2.898368120E0,-6.349795341E0,7.772613509E0
2.546029495E0,3.752294779E0,-2.812180519E0,-6.548505306E0,8.054253356E0
2.548433870E0,4.025222301E0,-2.754722118E0,-6.878890991E0,8.432677499E0
2.550837984E0,4.240691185E0,-2.682899237E0,-7.312222481E0,8.868483954E0
2.553241734E0,4.403489590E0,-2.623046875E0,-7.764707565E0,9.303858288E0
2.555645693E0,4.468130112E0,-2.603893757E0,-8.176492691E0,9.674682533E0
2.558049703E0,4.468130112E0,-2.608682156E0,-8.432661057E0,9.893390813E0
2.560454130E0,4.338849068E0,-2.642199516E0,-8.590671539E0,9.980303954E0
2.562858193E0,4.147321224E0,-2.663746357E0,-8.583489418E0,9.898086107E0
2.565262047E0,3.970157862E0,-2.668534517E0,-8.432661057E0,9.694998835E0
2.567666838E0,3.819329500E0,-2.625440836E0,-8.267468452E0,9.477935009E0
2.570071057E0,3.723565340E0,-2.536859035E0,-8.054393768E0,9.228968067E0
2.572474911E0,3.721171141E0,-2.438701153E0,-7.901171207E0,9.067683520E0
2.574879026E0,3.769053221E0,-2.311813831E0,-7.791042805E0,8.958269551E0
2.577283193E0,3.895940542E0,-2.189714909E0,-7.800619125E0,8.990153660E0
2.579687620E0,4.111409664E0,-2.108315468E0,-7.932294846E0,9.179868466E0
2.582091578E0,4.336454868E0,-2.024522066E0,-8.195645332E0,9.490633953E0
2.584495172E0,4.539953232E0,-1.969457746E0,-8.516453743E0,9.849869213E0
2.586899495E0,4.719510555E0,-1.952698946E0,-8.925845146E0,1.028384775E1
2.589303453E0,4.848792076E0,-1.928757906E0,-9.363965034E0,1.071982895E1
2.591706891E0,4.894279957E0,-1.947910786E0,-9.715898514E0,1.105201414E1
2.594110953E0,4.834427834E0,-1.979034066E0,-9.928973198E0,1.121930377E1
2.596514963E0,4.717116833E0,-2.036492586E0,-9.969672203E0,1.121574149E1
2.598919234E0,4.516012192E0,-2.117892027E0,-9.821238518E0,1.101528750E1
2.601323297E0,4.269420147E0,-2.206473589E0,-9.457335472E0,1.060837727E1
2.603726734E0,3.991704226E0,-2.302237511E0,-8.995274544E0,1.010687708E1
2.606130693E0,3.718777180E0,-2.357301712E0,-8.454208374E0,9.532041455E0
2.608534547E0,3.467396975E0,-2.402789593E0,-8.004117012E0,9.047769269E0
2.610938193E0,3.216016531E0,-2.429124832E0,-7.621061802E0,8.621136396E0
2.613342203E0,2.945483208E0,-2.450671673E0,-7.314617157E0,8.257438291E0
2.615746422E0,2.749167204E0,-2.453065872E0,-7.199700356E0,8.087715233E0
2.618150641E0,2.588762760E0,-2.431518793E0,-7.309828758E0,8.126965777E0
2.620554495E0,2.526515961E0,-2.400395632E0,-7.597120762E0,8.358314780E0
2.622958349E0,2.454693079E0,-2.424336672E0,-7.901171207E0,8.621567889E0
2.625362880E0,2.413993359E0,-2.424336672E0,-8.193250656E0,8.878858516E0
2.627766838E0,2.346958637E0,-2.488977432E0,-8.375202179E0,9.046946172E0
2.630170276E0,2.311047077E0,-2.599105835E0,-8.506877899E0,9.190389618E0
2.632574182E0,2.248800755E0,-2.716416597E0,-8.631371498E0,9.323979724E0
2.634978349E0,2.198524475E0,-2.843303919E0,-8.729529381E0,9.440475107E0
2.637382984E0,2.129095554E0,-2.939067841E0,-8.827687263E0,9.544591666E0
2.639787099E0,2.100366354E0,-3.001314402E0,-8.968938828E0,9.688203685E0
2.642190797E0,2.038120031E0,-3.008496523E0,-9.146101952E0,9.841553002E0
2.644595016E0,2.045302153E0,-2.982161522E0,-9.414240837E0,1.008486385E1
2.646998870E0,2.100366354E0,-2.915126801E0,-9.720685959E0,1.036345688E1
2.649402516E0,2.172189474E0,-2.793027878E0,-1.010374165E1,1.070537281E1
2.651806474E0,2.248800755E0,-2.692475557E0,-1.037666893E1,1.095361984E1
2.654210536E0,2.339776516E0,-2.630228996E0,-1.051792145E1,1.109140795E1
2.656615016E0,2.449904919E0,-2.584741116E0,-1.068311405E1,1.126107662E1
2.659018870E0,2.607915401E0,-2.613470316E0,-1.087942982E1,1.148883993E1
2.661422255E0,2.746773243E0,-2.680505037E0,-1.093928242E1,1.159300523E1
2.663826578E0,2.904783726E0,-2.749933958E0,-1.094407082E1,1.165214964E1
2.666230276E0,3.038853168E0,-2.793027878E0,-1.095364666E1,1.170546917E1
2.668633766E0,3.163346052E0,-2.857668400E0,-1.094646549E1,1.174726069E1
2.671037724E0,3.311780453E0,-2.903156281E0,-1.088182449E1,1.173926363E1
2.673441786E0,3.457820415E0,-2.924703121E0,-1.076930141E1,1.168281915E1
2.675846370E0,3.620619059E0,-2.917520761E0,-1.074057198E1,1.170387526E1
2.678250276E0,3.783417940E0,-2.915126801E0,-1.097040653E1,1.196503385E1
2.680654026E0,3.979733706E0,-2.879215240E0,-1.115953922E1,1.219276328E1
2.683058505E0,4.137744427E0,-2.879215240E0,-1.120263290E1,1.228453472E1
2.685462307E0,4.281390667E0,-2.831333399E0,-1.133430958E1,1.244240043E1
2.687865849E0,4.415460110E0,-2.778663158E0,-1.155456638E1,1.267774669E1
2.690269807E0,4.499253750E0,-2.702052116E0,-1.166230011E1,1.278880815E1
2.692673818E0,4.463342190E0,-2.632622957E0,-1.164075279E1,1.274202703E1
2.695078193E0,4.381942749E0,-2.546435595E0,-1.130079079E1,1.238521816E1
2.697482203E0,4.211961746E0,-2.457853794E0,-1.087224770E1,1.191584814E1
2.699886005E0,4.068315506E0,-2.362090111E0,-1.062804890E1,1.162265392E1
2.702290380E0,3.929457903E0,-2.304631472E0,-1.038864040E1,1.134353627E1
2.704694078E0,3.723565340E0,-2.285478830E0,-9.888273239E0,1.081047177E1
2.707097620E0,3.508096457E0,-2.275902271E0,-9.275383949E0,1.017443951E1
2.709501630E0,3.378815174E0,-2.330966473E0,-8.863598824E0,9.767967075E0
2.711905380E0,3.357268095E0,-2.354907513E0,-8.578701019E0,9.508467260E0
2.714309703E0,3.352480173E0,-2.400395632E0,-8.272256851E0,9.242903002E0
2.716713870E0,3.424302816E0,-2.455459833E0,-8.006511688E0,9.047616381E0
2.719117463E0,3.591889858E0,-2.539253235E0,-7.740766525E0,8.903310965E0
2.721521786E0,3.766659260E0,-2.637411356E0,-7.484598160E0,8.784239879E0
2.723925693E0,3.903122663E0,-2.797815800E0,-7.235611439E0,8.684250841E0
2.726329286E0,4.039586544E0,-2.965402842E0,-7.079995155E0,8.673995899E0
2.728733088E0,4.166473866E0,-3.152142525E0,-7.048871994E0,8.773944572E0
2.731136891E0,4.319695950E0,-3.326911926E0,-7.120695114E0,8.968412065E0
2.733541057E0,4.482495308E0,-3.496892929E0,-7.269129276E0,9.228286124E0
2.735944547E0,4.721904755E0,-3.635750532E0,-7.551632404E0,9.619886611E0
2.738347724E0,4.985255718E0,-3.745879173E0,-7.925112247E0,1.008423470E1
2.740752151E0,5.219877243E0,-3.832066536E0,-8.312955856E0,1.053741370E1
2.743156370E0,5.437740326E0,-3.877554655E0,-8.679253578E0,1.095143336E1
2.745560120E0,5.578992367E0,-3.927830458E0,-8.968938828E0,1.126920013E1
2.747964286E0,5.626873970E0,-3.915860176E0,-9.112585068E0,1.140328366E1
2.750368505E0,5.545474529E0,-3.935012817E0,-9.091037750E0,1.135269047E1
2.752772932E0,5.265365124E0,-3.915860176E0,-8.889934540E0,1.104938763E1
2.755176891E0,4.913432598E0,-3.963742018E0,-8.415902138E0,1.052047905E1
2.757580641E0,4.456159592E0,-3.994865417E0,-7.776678085E0,9.812901205E0
2.759984963E0,4.075498104E0,-4.042747021E0,-7.063236713E0,9.101802082E0
2.762389026E0,3.845664263E0,-4.167240143E0,-6.400071144E0,8.550785618E0
2.764792568E0,3.764265060E0,-4.332432747E0,-5.839852333E0,8.188011982E0
2.767196526E0,3.910305262E0,-4.492837906E0,-5.526225090E0,8.124976519E0
2.769600484E0,4.281390667E0,-4.677183151E0,-5.483131409E0,8.382784640E0
2.772004599E0,4.827245235E0,-4.832799911E0,-5.581289768E0,8.820943658E0
2.774408401E0,5.473651886E0,-5.002780914E0,-5.851822853E0,9.446296234E0
2.776811630E0,6.220610619E0,-5.134455681E0,-6.201361179E0,1.017425732E1
2.779215641E0,6.938840389E0,-5.196702957E0,-6.512593746E0,1.084283657E1
2.781619338E0,7.666646004E0,-5.230219841E0,-6.814249992E0,1.151375975E1
2.784022880E0,8.293899536E0,-5.206278801E0,-6.955502033E0,1.201137448E1
2.786426891E0,8.806236267E0,-5.151214600E0,-7.003384113E0,1.237465951E1
2.788830693E0,9.244357109E0,-5.091362476E0,-6.957896233E0,1.264090306E1
2.791234963E0,9.555589676E0,-5.017145157E0,-6.854949951E0,1.278559261E1
2.793639026E0,9.811758995E0,-4.976445198E0,-6.699333668E0,1.288086538E1
2.796042620E0,9.998497963E0,-5.041086197E0,-6.414435387E0,1.290455318E1
2.798446943E0,1.008229160E1,-5.122485638E0,-6.033773899E0,1.281791288E1
2.800850901E0,1.001525688E1,-5.239796162E0,-5.610018730E0,1.261876160E1
2.803254495E0,9.747117996E0,-5.335560322E0,-5.238933086E0,1.228498812E1
2.805658505E0,9.356879234E0,-5.390625000E0,-4.867847919E0,1.184508211E1
2.808062411E0,8.880454063E0,-5.450477123E0,-4.563797474E0,1.137534231E1
2.810466734E0,8.365722656E0,-5.443295002E0,-4.278899670E0,1.085927062E1
2.812870641E0,7.872539043E0,-5.455265522E0,-4.053854465E0,1.040050619E1
2.815274078E0,7.436812878E0,-5.455265522E0,-3.898238182E0,1.001310984E1
2.817678297E0,7.082486153E0,-5.426536560E0,-3.790503502E0,9.694164530E0
2.820082099E0,6.847864628E0,-5.440900803E0,-3.812050343E0,9.540879379E0
2.822485849E0,6.658730507E0,-5.452871323E0,-3.910208702E0,9.453159774E0
2.824890172E0,6.594089985E0,-5.450477123E0,-4.142436028E0,9.505235391E0
2.827294443E0,6.603666782E0,-5.493570805E0,-4.506339073E0,9.700248811E0
2.829699130E0,6.639577866E0,-5.543846607E0,-4.922912121E0,9.952552094E0
2.832103505E0,6.675488949E0,-5.560606003E0,-5.406519890E0,1.023293453E1
2.834507411E0,6.716189384E0,-5.577364445E0,-5.945192814E0,1.056217362E1
2.836911630E0,6.756888866E0,-5.574970245E0,-6.464712143E0,1.088707231E1
2.839315120E0,6.776041508E0,-5.543846607E0,-6.981837273E0,1.119799203E1
2.841718609E0,6.730553627E0,-5.515117645E0,-7.446292400E0,1.145269162E1
2.844122776E0,6.732947826E0,-5.450477123E0,-7.860471725E0,1.169732034E1
2.846527099E0,6.704218864E0,-5.416959763E0,-8.221980095E0,1.191179921E1
2.848931891E0,6.677883625E0,-5.364289284E0,-8.480543137E0,1.205360283E1
2.851336213E0,6.637183666E0,-5.352318764E0,-8.655312538E0,1.214964848E1
2.853740120E0,6.591696262E0,-5.340348244E0,-8.724740982E0,1.216925980E1
2.856144807E0,6.519873142E0,-5.321195602E0,-8.676858902E0,1.208766929E1
2.858549078E0,6.402562141E0,-5.333166122E0,-8.554759979E0,1.194233567E1
2.860952932E0,6.292433739E0,-5.316407681E0,-8.423084259E0,1.178164935E1
2.863356995E0,6.179911137E0,-5.292466640E0,-8.245921135E0,1.158433080E1
2.865760953E0,6.053023815E0,-5.230219841E0,-8.080728531E0,1.137068470E1
2.868165641E0,5.952471733E0,-5.115303516E0,-7.932294846E0,1.115883288E1
2.870570068E0,5.794461250E0,-5.005174637E0,-7.795830727E0,1.092714652E1
2.872974130E0,5.588568687E0,-4.818434715E0,-7.671337605E0,1.064419249E1
2.875378713E0,5.394646645E0,-4.634089470E0,-7.606697083E0,1.041339705E1
2.877782828E0,5.088202000E0,-4.399467945E0,-7.463051319E0,1.004700218E1
2.880186630E0,4.717116833E0,-4.143299103E0,-7.326587677E0,9.648678959E0
2.882590693E0,4.259843826E0,-3.903889656E0,-7.111118793E0,9.162676157E0
2.884994807E0,3.690047979E0,-3.707573652E0,-6.854949951E0,8.622812494E0
2.887399495E0,3.172922611E0,-3.492104530E0,-6.541323185E0,8.065428752E0
2.889803661E0,2.775502205E0,-3.346064568E0,-6.239666462E0,7.604800993E0
2.892207151E0,2.483422279E0,-3.223965645E0,-6.026591778E0,7.271942598E0
2.894611682E0,2.284711838E0,-3.140172005E0,-5.926039696E0,7.085092439E0
2.897016213E0,2.193736076E0,-3.056378603E0,-5.921251774E0,7.015351075E0
2.899420120E0,2.196130514E0,-3.010890722E0,-6.112779617E0,7.159226692E0
2.901824234E0,2.291894436E0,-2.979767323E0,-6.414435387E0,7.434835219E0
2.904228245E0,2.464269400E0,-2.996526003E0,-6.828615189E0,7.853774707E0
2.906632620E0,2.658191442E0,-3.020467043E0,-7.324193001E0,8.356614507E0
2.909036526E0,2.854507446E0,-3.073137283E0,-7.798224926E0,8.854642710E0
2.911439859E0,2.979000568E0,-3.183265924E0,-8.229162216E0,9.312719104E0
2.913844182E0,3.074764729E0,-3.302970886E0,-8.547577858E0,9.665654766E0
2.916248193E0,3.096311331E0,-3.458587170E0,-8.739106178E0,9.895501294E0
2.918651891E0,3.079552889E0,-3.575898170E0,-8.880356789E0,1.005641240E1
2.921056057E0,3.091523409E0,-3.721938133E0,-8.897115707E0,1.012763587E1
2.923460068E0,3.125040770E0,-3.865584135E0,-8.880356789E0,1.017690312E1
2.925864703E0,3.192075491E0,-3.992471218E0,-8.825293541E0,1.019877338E1
2.928268766E0,3.330933094E0,-4.097811222E0,-8.763047218E0,1.023123495E1
2.930672099E0,3.544008017E0,-4.215122223E0,-8.734316826E0,1.032548007E1
2.933076578E0,3.783417940E0,-4.303703785E0,-8.727134705E0,1.044025851E1
2.935480849E0,4.032403946E0,-4.387497425E0,-8.880356789E0,1.069444491E1
2.937884547E0,4.269420147E0,-4.440167427E0,-9.110191345E0,1.099720972E1
2.940288766E0,4.422642708E0,-4.452137947E0,-9.308900833E0,1.122661728E1
2.942693141E0,4.398701668E0,-4.459320545E0,-9.483670235E0,1.136547919E1
2.945097880E0,4.233508587E0,-4.423408985E0,-9.617739677E0,1.140131828E1
2.947502203E0,3.943822622E0,-4.363556385E0,-9.699139595E0,1.134317725E1
2.949905901E0,3.553584337E0,-4.253427982E0,-9.675198555E0,1.115029499E1
2.952310224E0,3.151375771E0,-4.136116982E0,-9.565070152E0,1.088711164E1
2.954714130E0,2.811413765E0,-3.994865417E0,-9.308900833E0,1.051278421E1
2.957117984E0,2.524122000E0,-3.891919136E0,-8.894721985E0,1.003166515E1
2.959522047E0,2.349352598E0,-3.793761015E0,-8.478149414E0,9.580767076E0
2.961925641E0,2.351746798E0,-3.719544172E0,-8.056787491E0,9.180280307E0
2.964329807E0,2.473845959E0,-3.654903412E0,-7.685702324E0,8.862745229E0
2.966733870E0,2.773108244E0,-3.618991852E0,-7.403198719E0,8.694514514E0
2.969137463E0,3.172922611E0,-3.573503733E0,-7.245188236E0,8.679292564E0
2.971541682E0,3.608648777E0,-3.573503733E0,-7.180547714E0,8.795029301E0
2.973945641E0,4.032403946E0,-3.595050812E0,-7.235611439E0,9.029880664E0
2.976349443E0,4.391519070E0,-3.578292131E0,-7.360104561E0,9.287666739E0
2.978753766E0,4.614170074E0,-3.621385813E0,-7.513327122E0,9.531793384E0
2.981157880E0,4.755422115E0,-3.628568411E0,-7.692884445E0,9.744794472E0
2.983562151E0,4.772180557E0,-3.635750532E0,-7.901171207E0,9.920730601E0
2.985965953E0,4.693175793E0,-3.659691572E0,-8.023269653E0,9.989599459E0
2.988369755E0,4.453765869E0,-3.688420534E0,-8.090305328E0,9.944521947E0
2.990774391E0,4.152109146E0,-3.724332094E0,-8.056787491E0,9.799106315E0
2.993178401E0,3.783417940E0,-3.743484735E0,-8.025664330E0,9.630120311E0
2.995582255E0,3.376421213E0,-3.700391054E0,-7.925112247E0,9.375527628E0
2.997986422E0,2.969424248E0,-3.642932892E0,-7.824560165E0,9.127550723E0
3.000390484E0,2.586368322E0,-3.585474253E0,-7.668943405E0,8.851983940E0
3.002795120E0,2.234436035E0,-3.520833731E0,-7.508539200E0,8.588779626E0
3.005199391E0,1.949538350E0,-3.432252169E0,-7.391228199E0,8.379218879E0
3.007603193E0,1.719704866E0,-3.331700087E0,-7.264340401E0,8.174854846E0
3.010007932E0,1.611970425E0,-3.233541727E0,-7.202094078E0,8.057567863E0
3.012412307E0,1.702946186E0,-3.164113045E0,-7.144636154E0,7.997340986E0
3.014816266E0,1.975873590E0,-3.075531244E0,-7.127877235E0,8.010593159E0
3.017220380E0,2.411599159E0,-3.039619923E0,-7.209276676E0,8.187109989E0
3.019624495E0,2.916754246E0,-3.003708363E0,-7.472627640E0,8.565622167E0
3.022029078E0,3.474579096E0,-2.967797041E0,-7.829348087E0,9.065274990E0
3.024433141E0,4.020433903E0,-2.931885481E0,-8.358444214E0,9.727457577E0
3.026836995E0,4.456159592E0,-2.828939438E0,-8.904297829E0,1.035117271E1
3.029241474E0,4.757816315E0,-2.759510279E0,-9.510004997E0,1.098598690E1
3.031645380E0,4.939767838E0,-2.682899237E0,-1.006783009E1,1.153084807E1
3.034048766E0,4.994832039E0,-2.603893757E0,-1.055862141E1,1.196716741E1
3.036452411E0,4.939767838E0,-2.551223755E0,-1.086267090E1,1.220277296E1
3.038856109E0,4.786545753E0,-2.503341913E0,-1.104941082E1,1.229907397E1
3.041260120E0,4.602199554E0,-2.472218513E0,-1.103983402E1,1.221351875E1
3.043664026E0,4.386731148E0,-2.417154312E0,-1.089618874E1,1.199220472E1
3.046067932E0,4.176050186E0,-2.383636713E0,-1.062565517E1,1.166300420E1
3.048472516E0,3.965369463E0,-2.350119591E0,-1.022344685E1,1.121454781E1
3.050876161E0,3.759476900E0,-2.318996191E0,-9.794902802E0,1.074483740E1
3.053279234E0,3.589495897E0,-2.266326189E0,-9.383117676E0,1.029871897E1
3.055682932E0,3.496125937E0,-2.228020430E0,-9.021609306E0,9.928565157E0
3.058086786E0,3.431485415E0,-2.230414629E0,-8.753470421E0,9.662975006E0
3.060491057E0,3.407544374E0,-2.223232269E0,-8.533212662E0,9.453562224E0
3.062894703E0,3.390785694E0,-2.254355669E0,-8.444631577E0,9.375038644E0
3.065297724E0,3.429091215E0,-2.275902271E0,-8.430267334E0,9.381247520E0
3.067701891E0,3.515278578E0,-2.297449350E0,-8.504484177E0,9.484814606E0
3.070106057E0,3.646954060E0,-2.311813831E0,-8.652917862E0,9.670457312E0
3.072509703E0,3.792994261E0,-2.335754871E0,-8.815716743E0,9.877217117E0
3.074913713E0,3.977339983E0,-2.374060631E0,-9.000061989E0,1.012208047E1
3.077317568E0,4.190414429E0,-2.407577753E0,-9.201167107E0,1.039314581E1
3.079721578E0,4.362790108E0,-2.450671673E0,-9.373541832E0,1.062558307E1
3.082125484E0,4.499253750E0,-2.491371393E0,-9.490853310E0,1.079474466E1
3.084529078E0,4.571076870E0,-2.551223755E0,-9.512398720E0,1.085768004E1
3.086933297E0,4.621352673E0,-2.611076355E0,-9.517188072E0,1.089731568E1
3.089337359E0,4.609382153E0,-2.670928717E0,-9.474094391E0,1.086916412E1
3.091741109E0,4.499253750E0,-2.735569239E0,-9.277777672E0,1.066788554E1
3.094145068E0,4.293361187E0,-2.807392359E0,-8.988092422E0,1.034892301E1
3.096549026E0,4.077892303E0,-2.898368120E0,-8.631371498E0,9.976488227E0
3.098953453E0,3.814541101E0,-2.965402842E0,-8.245921135E0,9.557172866E0
3.101357463E0,3.570343256E0,-3.053984642E0,-7.817377567E0,9.120612106E0
3.103760901E0,3.318962574E0,-3.140172005E0,-7.455868721E0,8.744493763E0
3.106165224E0,3.108281851E0,-3.190448046E0,-7.170970917E0,8.441753295E0
3.108569286E0,2.921542406E0,-3.235936165E0,-6.921984673E0,8.180499050E0
3.110972932E0,2.801837444E0,-3.302970886E0,-6.752003670E0,8.021811722E0
3.113376682E0,2.727620363E0,-3.365217209E0,-6.675392628E0,7.957729981E0
3.115780641E0,2.727620363E0,-3.470557690E0,-6.749609470E0,8.064856572E0
3.118185172E0,2.727620363E0,-3.638144493E0,-6.742427349E0,8.132424900E0
3.120588922E0,2.823384285E0,-3.848825216E0,-6.732851028E0,8.253256166E0
3.122992411E0,2.945483208E0,-4.133722782E0,-6.763974190E0,8.456647220E0
3.125396734E0,3.165740490E0,-4.435379505E0,-6.838191032E0,8.743875617E0
3.127800536E0,3.426697254E0,-4.732247353E0,-6.924378395E0,9.059990907E0
3.130204026E0,3.685259819E0,-5.002780914E0,-7.041689396E0,9.391184502E0
3.132607776E0,3.910305262E0,-5.213461399E0,-7.175759315E0,9.693409553E0
3.135011526E0,4.109015465E0,-5.352318764E0,-7.443898201E0,1.004703661E1
3.137415797E0,4.240691185E0,-5.433718204E0,-7.647396564E0,1.029521391E1
3.139819703E0,4.377154827E0,-5.486388683E0,-7.836530685E0,1.052003604E1
3.142223036E0,4.508830070E0,-5.476812363E0,-8.123822212E0,1.078524499E1
3.144627411E0,4.638111115E0,-5.428930283E0,-8.499695778E0,1.110090929E1
3.147031318E0,4.745845795E0,-5.342742920E0,-8.887539864E0,1.140422374E1
3.149434755E0,4.853579998E0,-5.220643997E0,-9.213136673E0,1.164878749E1
3.151838766E0,4.903856277E0,-5.069815159E0,-9.517188072E0,1.184599936E1
3.154242672E0,4.894279957E0,-4.892652512E0,-9.718292236E0,1.193051671E1
3.156646891E0,4.844003677E0,-4.672394753E0,-9.871514320E0,1.194748674E1
3.159050901E0,4.721904755E0,-4.442561150E0,-9.931366920E0,1.186021851E1
3.161454807E0,4.566287994E0,-4.179210663E0,-9.921790123E0,1.169438784E1
3.163859234E0,4.384336472E0,-3.927830458E0,-9.893060684E0,1.151185945E1
3.166262932E0,4.185626507E0,-3.657297373E0,-9.816450119E0,1.128086815E1
3.168666474E0,3.986916304E0,-3.413099289E0,-9.727868080E0,1.105333279E1
3.171070901E0,3.828905582E0,-3.168901443E0,-9.598587036E0,1.080903915E1
3.173475276E0,3.680471659E0,-2.936673641E0,-9.538735390E0,1.063754655E1
3.175879599E0,3.601466417E0,-2.733175278E0,-9.438181877E0,1.046518440E1
3.178283453E0,3.555978298E0,-2.567982674E0,-9.237077713E0,1.022561105E1
3.180687151E0,3.567948818E0,-2.445883274E0,-9.091037750E0,1.006774906E1
3.183091682E0,3.618224859E0,-2.340543032E0,-8.921056747E0,9.907317816E0
3.185495641E0,3.646954060E0,-2.263931751E0,-8.729529381E0,9.727812914E0
3.187899443E0,3.666106939E0,-2.228020430E0,-8.602642059E0,9.613005021E0
3.190303609E0,3.733141661E0,-2.187320709E0,-8.514060020E0,9.550389342E0
3.192707880E0,3.788206100E0,-2.158591509E0,-8.458995819E0,9.516545226E0
3.195112568E0,3.797782421E0,-2.158591509E0,-8.372808456E0,9.443865208E0
3.197516786E0,3.795388460E0,-2.146620989E0,-8.305773735E0,9.380769295E0
3.199920641E0,3.735535860E0,-2.172955990E0,-8.212404251E0,9.280061933E0
3.202325276E0,3.627801418E0,-2.218444109E0,-8.109457970E0,9.156732275E0
3.204729599E0,3.450638056E0,-2.249567270E0,-8.037634850E0,9.031668167E0
3.207133870E0,3.232775211E0,-2.328572512E0,-7.702461243E0,8.671850708E0
3.209538557E0,3.038853168E0,-2.431518793E0,-8.538001060E0,9.383196381E0
3.211942828E0,2.861689806E0,-2.524888515E0,-6.756792068E0,7.760062475E0
3.214347307E0,2.816201925E0,-2.642199516E0,-8.166915894E0,9.033865550E0
3.216751474E0,2.780290365E0,-2.862456560E0,-6.804674149E0,7.888425847E0
3.219155328E0,2.967030048E0,-2.974979401E0,-7.695278645E0,8.767615591E0
3.221560068E0,3.175316572E0,-3.156930923E0,-7.769495487E0,8.967380237E0
3.223964286E0,3.486549616E0,-3.302970886E0,-7.240400314E0,8.688442991E0
3.226368193E0,3.814541101E0,-3.422675848E0,-8.877963066E0,1.025103224E1
3.228772724E0,4.030010223E0,-3.595050812E0,-7.786254406E0,9.475818192E0
3.231177047E0,4.322090149E0,-3.688420534E0,-9.131737709E0,1.075516354E1
3.233581422E0,4.408277512E0,-3.848825216E0,-9.062309265E0,1.078757690E1
3.235985224E0,4.527982712E0,-3.954165459E0,-8.576307297E0,1.047335184E1
3.238388766E0,4.527982712E0,-4.047535419E0,-9.790115356E0,1.152091703E1
3.240793245E0,4.403489590E0,-4.260609627E0,-7.992146969E0,1.007064686E1
3.243197411E0,4.353213787E0,-4.375526905E0,-8.664889336E0,1.063842155E1
3.245601109E0,4.199991226E0,-4.619724751E0,-7.453474522E0,9.722965881E0
3.248004911E0,4.152109146E0,-4.770552635E0,-6.390494823E0,8.990918023E0
3.250408818E0,4.223932266E0,-4.892652512E0,-6.938743591E0,9.482922282E0
3.252813349E0,4.298149109E0,-5.017145157E0,-4.779266357E0,8.153969475E0
3.255217516E0,4.537559032E0,-5.021933556E0,-5.540589809E0,8.746850522E0
3.257621109E0,4.736268997E0,-5.055450916E0,-4.456063271E0,8.236888238E0
3.260025380E0,5.181571484E0,-4.942928314E0,-4.065824986E0,8.234813670E0
3.262429495E0,5.684332848E0,-4.813646793E0,-5.135987282E0,9.047717985E0
3.264833245E0,6.158364296E0,-4.749006271E0,-3.812050343E0,8.660845177E0
3.267237203E0,6.720977306E0,-4.650848389E0,-5.629171848E0,9.924187744E0
3.269641005E0,7.183038235E0,-4.780129433E0,-4.951641560E0,9.948086741E0
3.272045276E0,7.685799122E0,-4.861528873E0,-4.977976799E0,1.036755632E1
3.274449286E0,7.918026447E0,-4.988415718E0,-5.863792896E0,1.104370868E1
3.276852828E0,7.882114887E0,-5.110515118E0,-4.290870190E0,1.032747146E1
3.279257255E0,7.824656487E0,-5.146426201E0,-5.818305016E0,1.102558955E1
3.281661318E0,7.523000240E0,-5.246978760E0,-4.604496956E0,1.026292896E1
3.284065120E0,7.206979275E0,-5.237402439E0,-4.592526436E0,1.002308504E1
3.286469755E0,6.864623070E0,-5.266131401E0,-5.214992046E0,1.010204592E1
3.288874338E0,6.522267342E0,-5.342742920E0,-3.558276176E0,9.151295129E0
3.291279078E0,6.335526943E0,-5.309225559E0,-5.183868885E0,9.757011546E0
3.293683349E0,6.050629616E0,-5.393018723E0,-3.931755066E0,9.008521942E0
3.296087359E0,5.930924892E0,-5.388230324E0,-4.513521671E0,9.196780631E0
3.298492047E0,5.837554455E0,-5.424141884E0,-5.310756207E0,9.576141638E0
3.300896161E0,5.756155491E0,-5.483994484E0,-4.276505470E0,9.027514640E0
3.303299911E0,5.758549690E0,-5.476812363E0,-6.349795341E0,1.017232860E1
3.305704391E0,5.634056568E0,-5.572576523E0,-5.282027245E0,9.523445507E0
3.308108661E0,5.686726570E0,-5.586940765E0,-6.433588505E0,1.024420945E1
3.310512984E0,5.638844490E0,-5.630034447E0,-7.000989914E0,1.060696539E1
3.312916943E0,5.641238689E0,-5.625246525E0,-6.957896233E0,1.057730081E1
3.315320380E0,5.646027088E0,-5.632428646E0,-7.498962402E0,1.094697727E1
3.317724443E0,5.693908691E0,-5.579758167E0,-7.700066566E0,1.108356091E1
3.320128349E0,5.720243931E0,-5.515117645E0,-7.946659088E0,1.123775351E1
3.322531891E0,5.760943890E0,-5.431324482E0,-8.063969612E0,1.130112234E1
3.324935849E0,5.847131252E0,-5.349925041E0,-8.152551651E0,1.136990502E1
3.327340120E0,5.906983852E0,-5.275707722E0,-8.138187408E0,1.135586388E1
3.329744495E0,5.959653854E0,-5.194308281E0,-7.996934891E0,1.124496688E1
3.332148453E0,5.985989094E0,-5.156002998E0,-7.793436527E0,1.109748103E1
3.334552307E0,5.993171215E0,-5.120091438E0,-7.479809761E0,1.086650779E1
3.336956734E0,5.926136494E0,-5.079391956E0,-7.151818275E0,1.058620900E1
3.339360484E0,5.806431770E0,-5.053056717E0,-6.857344151E0,1.030879241E1
3.341764026E0,5.634056568E0,-4.966869354E0,-6.629904747E0,1.001838418E1
3.344168193E0,5.399434566E0,-4.859134674E0,-6.459923744E0,9.720889784E0
3.346572203E0,5.124113083E0,-4.739429951E0,-6.311489582E0,9.410293932E0
3.348976682E0,4.774575233E0,-4.605360508E0,-6.148690701E0,9.045015832E0
3.351380953E0,4.429824829E0,-4.490443230E0,-5.985892296E0,8.695880346E0
3.353784547E0,4.020433903E0,-4.394679546E0,-5.758452415E0,8.284737250E0
3.356188922E0,3.639771938E0,-4.315674305E0,-5.454401970E0,7.850062759E0
3.358593141E0,3.297415972E0,-4.263004303E0,-5.128804684E0,7.439811507E0
3.360997047E0,3.026882648E0,-4.227092743E0,-4.760113716E0,7.049043496E0
3.363401318E0,2.868872166E0,-4.203151703E0,-4.463244915E0,6.768860090E0
3.365805536E0,2.794655085E0,-4.188786983E0,-4.233411789E0,6.578587144E0
3.368210068E0,2.811413765E0,-4.172028542E0,-4.171165466E0,6.535173361E0
3.370614182E0,2.916754246E0,-4.131328583E0,-4.281293869E0,6.626070357E0
3.373017932E0,3.062794209E0,-4.100205421E0,-4.551826954E0,6.849198601E0
3.375422463E0,3.254321814E0,-4.095417500E0,-4.898971081E0,7.166796538E0
3.377826422E0,3.429091215E0,-4.100205421E0,-5.327515125E0,7.546705803E0
3.380229651E0,3.563160658E0,-4.119358540E0,-5.801546574E0,7.957585771E0
3.382633401E0,3.623013258E0,-4.195969105E0,-6.239666462E0,8.346605259E0
3.385037463E0,3.582313776E0,-4.277369022E0,-6.589205265E0,8.634030563E0
3.387441995E0,3.448243856E0,-4.373132706E0,-6.910014153E0,8.874850474E0
3.389846266E0,3.194469690E0,-4.437773228E0,-7.166182518E0,9.014024612E0
3.392250120E0,2.892813206E0,-4.502413750E0,-7.336163521E0,9.080715447E0
3.394654443E0,2.581580162E0,-4.571842670E0,-7.367287159E0,9.046724359E0
3.397058453E0,2.267953396E0,-4.598177910E0,-7.321799278E0,8.938433720E0
3.399462203E0,2.009390593E0,-4.598177910E0,-7.211670399E0,8.785731648E0
3.401866057E0,1.817862868E0,-4.631695271E0,-7.063236713E0,8.639822878E0
3.404269807E0,1.765192747E0,-4.658030510E0,-6.888467312E0,8.500831464E0
3.406674234E0,1.805892467E0,-4.689153671E0,-6.775944710E0,8.435806806E0
3.409078505E0,1.942355990E0,-4.722671509E0,-6.730456829E0,8.448397606E0
3.411482359E0,2.162612915E0,-4.758582115E0,-6.811856270E0,8.586174015E0
3.413886734E0,2.390052319E0,-4.787312031E0,-6.957896233E0,8.777415710E0
3.416290797E0,2.653403282E0,-4.830405235E0,-7.187729836E0,9.057418170E0
3.418694443E0,2.904783726E0,-4.847164154E0,-7.513327122E0,9.401215521E0
3.421098505E0,3.127434969E0,-4.856740952E0,-7.872442245E0,9.764431835E0
3.423502568E0,3.314174414E0,-4.866316795E0,-8.214797974E0,1.010681438E1
3.425907151E0,3.424302816E0,-4.859134674E0,-8.523636818E0,1.039179600E1
3.428311161E0,3.493731976E0,-4.847164154E0,-8.719953537E0,1.057065528E1
3.430714651E0,3.536825657E0,-4.830405235E0,-8.786988258E0,1.063264375E1
3.433119182E0,3.522461176E0,-4.804070473E0,-8.743894577E0,1.058028914E1
3.435523349E0,3.476973057E0,-4.775341511E0,-8.607430458E0,1.043940071E1
3.437927307E0,3.407544374E0,-4.760976791E0,-8.387172699E0,1.022853482E1
3.440331838E0,3.350085974E0,-4.713094711E0,-8.059181213E0,9.919009004E0
3.442736213E0,3.311780453E0,-4.705912113E0,-7.719219685E0,9.628076190E0
3.445140797E0,3.338115454E0,-4.701124191E0,-7.482203484E0,9.446001927E0
3.447544807E0,3.431485415E0,-4.681971550E0,-7.312222481E0,9.336195550E0
3.449948453E0,3.534431696E0,-4.691547871E0,-7.247581959E0,9.329001720E0
3.452353141E0,3.706806660E0,-4.691547871E0,-7.211670399E0,9.367989484E0
3.454757463E0,3.857634783E0,-4.693942070E0,-7.226035118E0,9.440869759E0
3.457161578E0,3.915093184E0,-4.715488911E0,-7.266735077E0,9.506273138E0
3.459566057E0,3.828905582E0,-4.710700989E0,-7.326587677E0,9.514731145E0
3.461970276E0,3.654136419E0,-4.689153671E0,-7.278705597E0,9.397894993E0
3.464374859E0,3.409938335E0,-4.686759949E0,-7.170970917E0,9.220424185E0
3.466778870E0,3.101099730E0,-4.674789429E0,-7.029719353E0,8.993743932E0
3.469182828E0,2.823384285E0,-4.674789429E0,-6.821432590E0,8.738254838E0
3.471587880E0,2.586368322E0,-4.648453712E0,-6.582022667E0,8.462886352E0
3.473992463E0,2.442722559E0,-4.646059990E0,-6.309095860E0,8.207158917E0
3.476396318E0,2.452298880E0,-4.693942070E0,-6.079262257E0,8.062523894E0
3.478800432E0,2.593550682E0,-4.703518391E0,-5.897310734E0,7.976707609E0
3.481204755E0,2.904783726E0,-4.717882633E0,-5.789576054E0,8.013449689E0
3.483609963E0,3.326144934E0,-4.727459431E0,-5.803940773E0,8.191327199E0
3.486014547E0,3.749900341E0,-4.758582115E0,-5.954768658E0,8.495005949E0
3.488418349E0,4.128168106E0,-4.746612072E0,-6.237272739E0,8.858649406E0
3.490822880E0,4.417854309E0,-4.770552635E0,-6.637087345E0,9.291207541E0
3.493227151E0,4.606987953E0,-4.746612072E0,-7.123089314E0,9.720754370E0
3.495631318E0,4.690781593E0,-4.741823673E0,-7.613879204E0,1.012222704E1
3.498036109E0,4.583047390E0,-4.734642029E0,-8.085515976E0,1.043056696E1
3.500440693E0,4.458554268E0,-4.729853153E0,-8.473361015E0,1.067932881E1
3.502845536E0,4.290966988E0,-4.749006271E0,-8.803746223E0,1.088445708E1
3.505249807E0,4.144927025E0,-4.715488911E0,-9.031186104E0,1.099902624E1
3.507653401E0,4.044374466E0,-4.708306313E0,-9.098219872E0,1.101375131E1
3.510057568E0,3.951004744E0,-4.693942070E0,-9.126950264E0,1.099748843E1
3.512461422E0,3.879182100E0,-4.713094711E0,-8.995274544E0,1.087089139E1
3.514865432E0,3.833693743E0,-4.705912113E0,-8.861205101E0,1.074075288E1
3.517269911E0,3.800176382E0,-4.701124191E0,-8.664889336E0,1.056514157E1
3.519674130E0,3.826511621E0,-4.691547871E0,-8.497302055E0,1.043345364E1
3.522078609E0,3.886364222E0,-4.703518391E0,-8.418296814E0,1.039685690E1
3.524482568E0,3.927063704E0,-4.705912113E0,-8.396749496E0,1.039580878E1
3.526885901E0,3.941428423E0,-4.686759949E0,-8.456602097E0,1.044101029E1
3.529290172E0,3.967763186E0,-4.665212631E0,-8.585883141E0,1.054631419E1
3.531694182E0,3.986916304E0,-4.648453712E0,-8.846839905E0,1.075965612E1
3.534097776E0,3.953398943E0,-4.588601112E0,-9.138919830E0,1.096378033E1
3.536501682E0,3.936640024E0,-4.523961067E0,-9.438181877E0,1.118224645E1
3.538905536E0,3.852846861E0,-4.490443230E0,-9.682379723E0,1.134711357E1
3.541309807E0,3.802570581E0,-4.449743748E0,-9.876301765E0,1.148046598E1
3.543713922E0,3.737929821E0,-4.413832188E0,-9.988824844E0,1.154255846E1
3.546117828E0,3.673289299E0,-4.425802708E0,-9.960096359E0,1.150149135E1
3.548522516E0,3.618224859E0,-4.399467945E0,-9.849967003E0,1.137843220E1
3.550926838E0,3.570343256E0,-4.432985306E0,-9.639286995E0,1.119439875E1
3.553330484E0,3.532037497E0,-4.459320545E0,-9.351995468E0,1.094626182E1
3.555734495E0,3.498520136E0,-4.502413750E0,-9.074278831E0,1.071699160E1
3.558138818E0,3.563160658E0,-4.509596348E0,-8.846839905E0,1.054984120E1
3.560543713E0,3.601466417E0,-4.550295830E0,-8.715165138E0,1.047042768E1
3.562948349E0,3.639771938E0,-4.555084229E0,-8.626583099E0,1.041223646E1
3.565352255E0,3.687654018E0,-4.550295830E0,-8.609824181E0,1.041311945E1
3.567756578E0,3.702018499E0,-4.600571632E0,-8.660099983E0,1.048177142E1
3.570160641E0,3.728353739E0,-4.643665791E0,-8.679253578E0,1.052585846E1
3.572564338E0,3.654136419E0,-4.705912113E0,-8.655312538E0,1.050774747E1
3.574968193E0,3.589495897E0,-4.777735233E0,-8.605035782E0,1.047653929E1
3.577371838E0,3.472184896E0,-4.871105194E0,-8.600248337E0,1.047606821E1
3.579776109E0,3.340509653E0,-4.945322514E0,-8.569125175E0,1.044246742E1
3.582180172E0,3.211228132E0,-4.978839874E0,-8.609824181E0,1.045131116E1
3.584583713E0,3.086735249E0,-4.988415718E0,-8.710375786E0,1.050156523E1
3.586988297E0,2.990971088E0,-4.966869354E0,-8.854022026E0,1.058344959E1
3.589392620E0,2.926330328E0,-4.911804676E0,-9.114978790E0,1.075974315E1
3.591796161E0,2.890419006E0,-4.883075714E0,-9.387906075E0,1.096958208E1
3.594199963E0,2.859295607E0,-4.839982033E0,-9.665621758E0,1.118146866E1
3.596603870E0,2.835354567E0,-4.806464195E0,-9.895455360E0,1.136051805E1
3.599008036E0,2.835354567E0,-4.780129433E0,-1.007501316E1,1.150629233E1
3.601411786E0,2.907177687E0,-4.813646793E0,-1.033118153E1,1.176249078E1
3.603815120E0,3.072370529E0,-4.868711472E0,-1.061607933E1,1.207662835E1
3.606219078E0,3.371632814E0,-4.954898834E0,-1.093210030E1,1.246714671E1
3.608622568E0,3.747506380E0,-5.007568836E0,-1.124333286E1,1.286592723E1
3.611025745E0,4.178444386E0,-5.098544598E0,-1.149950123E1,1.325492674E1
3.613429443E0,4.566287994E0,-5.158396721E0,-1.166469383E1,1.354714453E1
3.615833245E0,4.903856277E0,-5.211067200E0,-1.176764011E1,1.377245009E1
3.618237568E0,5.092989922E0,-5.280496120E0,-1.174848843E1,1.385096264E1
3.620641422E0,5.083413601E0,-5.354713440E0,-1.153541279E1,1.369597744E1
3.623044859E0,5.076231480E0,-5.270919800E0,-1.141331387E1,1.355781896E1
3.625448974E0,4.889491558E0,-5.290072441E0,-1.102068233E1,1.316614724E1
3.627852828E0,4.575864792E0,-5.337954521E0,-1.051792145E1,1.265144137E1
3.630256630E0,4.281390667E0,-5.412171364E0,-1.014683628E1,1.227111207E1
3.632660953E0,4.056344986E0,-5.515117645E0,-9.909820557E0,1.204470841E1
3.635065016E0,3.943822622E0,-5.615669727E0,-9.924183846E0,1.206560850E1
3.637469286E0,3.907911062E0,-5.711433887E0,-1.002952480E1,1.218538525E1
3.639873297E0,3.970157862E0,-5.752133369E0,-1.015401840E1,1.232693317E1
3.642277047E0,4.111409664E0,-5.768892288E0,-1.031442356E1,1.251283905E1
3.644681526E0,4.259843826E0,-5.728192329E0,-1.042215729E1,1.263249062E1
3.647085693E0,4.415460110E0,-5.663551807E0,-1.037427521E1,1.261735682E1
3.649489234E0,4.551923752E0,-5.644399166E0,-1.018514156E1,1.250265414E1
3.651893193E0,4.587835312E0,-5.596517563E0,-9.866725922E0,1.223607462E1
3.654297203E0,4.530376434E0,-5.610881805E0,-9.419030190E0,1.186273303E1
3.656701422E0,4.360395432E0,-5.634822845E0,-9.016820908E0,1.149205535E1
3.659105276E0,4.152109146E0,-5.677916527E0,-8.597853661E0,1.110863781E1
3.661508766E0,4.056344986E0,-5.744951248E0,-8.293803215E0,1.087407795E1
3.663913245E0,4.077892303E0,-5.814380169E0,-8.150157928E0,1.081024036E1
3.666317568E0,4.219144344E0,-5.879020691E0,-7.999329090E0,1.078672004E1
3.668721474E0,4.355607510E0,-5.919720173E0,-7.860471725E0,1.076110679E1
3.671125380E0,4.504041672E0,-5.924509048E0,-7.793436527E0,1.077607775E1
3.673528922E0,4.614170074E0,-5.922114372E0,-7.692884445E0,1.074906857E1
3.675932828E0,4.616564751E0,-5.857473850E0,-7.515721321E0,1.058814134E1
3.678336318E0,4.487283230E0,-5.788044930E0,-7.240400314E0,1.029857134E1
3.680739495E0,4.293361187E0,-5.713827610E0,-6.981837273E0,9.991337645E0
3.683143713E0,4.027616024E0,-5.653975487E0,-6.696939468E0,9.645627397E0
3.685547672E0,3.759476900E0,-5.601305485E0,-6.433588505E0,9.321982125E0
3.687951370E0,3.594284058E0,-5.589334965E0,-6.222908020E0,9.104072026E0
3.690355484E0,3.584707737E0,-5.601305485E0,-6.019409657E0,8.969840874E0
3.692759443E0,3.690047979E0,-5.632428646E0,-5.961951256E0,8.993640493E0
3.695163818E0,3.903122663E0,-5.694675446E0,-5.923645496E0,9.096882484E0
3.697567672E0,4.197597027E0,-5.771286488E0,-5.985892296E0,9.314422961E0
3.699971109E0,4.585441113E0,-5.881414890E0,-6.112779617E0,9.642789325E0
3.702375432E0,5.023561001E0,-5.955631733E0,-6.340218544E0,1.004510257E1
3.704779599E0,5.456892967E0,-6.003513813E0,-6.586811066E0,1.045016454E1
3.707183557E0,5.878254890E0,-6.056184292E0,-6.804674149E0,1.084134858E1
3.709587620E0,6.249339581E0,-6.104065895E0,-7.032113075E0,1.121447636E1
3.711991578E0,6.522267342E0,-6.113642216E0,-7.211670399E0,1.148585140E1
3.714396005E0,6.742524147E0,-6.144765854E0,-7.297858238E0,1.168240190E1
3.716800068E0,6.802376747E0,-6.175889015E0,-7.305040836E0,1.173786847E1
3.719203870E0,6.783223629E0,-6.190253735E0,-7.149424076E0,1.163811105E1
3.721608349E0,6.670701027E0,-6.235741138E0,-6.881285191E0,1.143393220E1
3.724012307E0,6.519873142E0,-6.252500534E0,-6.524564266E0,1.114326916E1
3.726415901E0,6.361862659E0,-6.269258976E0,-6.096020699E0,1.081380474E1
3.728819651E0,6.223004818E0,-6.264471054E0,-5.657900810E0,1.048719353E1
3.731223297E0,6.103299618E0,-6.252500534E0,-5.234145164E0,1.018529846E1
3.733627255E0,6.079358578E0,-6.262076855E0,-4.889395237E0,1.000391888E1
3.736030693E0,6.105693817E0,-6.214194775E0,-4.597314835E0,9.850432345E0
3.738433974E0,6.230186939E0,-6.192647934E0,-4.386634350E0,9.818690272E0
3.740838141E0,6.371438503E0,-6.178283215E0,-4.274111748E0,9.850606241E0
3.743241995E0,6.589301586E0,-6.163918495E0,-4.202288628E0,9.953492669E0
3.745645432E0,6.768859386E0,-6.159130573E0,-4.195106506E0,1.006733656E1
3.748049130E0,6.936446190E0,-6.151947975E0,-4.238200188E0,1.019426753E1
3.750452620E0,7.051362514E0,-6.147160053E0,-4.276505470E0,1.028580522E1
3.752856422E0,7.118397713E0,-6.139977455E0,-4.338752270E0,1.035353468E1
3.755259963E0,7.082486153E0,-6.156736374E0,-4.379452229E0,1.035599414E1
3.757663141E0,6.993904591E0,-6.144765854E0,-4.456063271E0,1.032130557E1
3.760066995E0,6.850258827E0,-6.130401134E0,-4.518309593E0,1.024319216E1
3.762470588E0,6.661124706E0,-6.123219013E0,-4.590132713E0,1.014562525E1
3.764874078E0,6.426503181E0,-6.118430614E0,-4.743355274E0,1.006153843E1
3.767277984E0,6.213428020E0,-6.113642216E0,-4.863059521E0,9.981615942E0
3.769681630E0,5.990777016E0,-6.096883774E0,-5.061769962E0,9.933927529E0
3.772085536E0,5.827978611E0,-6.101671696E0,-5.279633045E0,9.953404305E0
3.774489234E0,5.677150249E0,-6.092095375E0,-5.514254570E0,9.987525443E0
3.776892620E0,5.567021847E0,-6.154342175E0,-5.768029213E0,1.010632578E1
3.779296995E0,5.480834007E0,-6.175889015E0,-5.973921776E0,1.019160870E1
3.781700588E0,5.447316647E0,-6.240530014E0,-6.165449619E0,1.032619206E1
3.784103557E0,5.401828766E0,-6.329111099E0,-6.364159584E0,1.047568272E1
3.786507255E0,5.406617165E0,-6.432057858E0,-6.512593746E0,1.063093386E1
3.788910953E0,5.411405087E0,-6.537397861E0,-6.661027908E0,1.078842753E1
3.791315224E0,5.476045609E0,-6.661890984E0,-6.802279472E0,1.098357287E1
3.793719026E0,5.557445049E0,-6.769625187E0,-6.900437832E0,1.115029430E1
3.796122203E0,5.624480247E0,-6.889330387E0,-7.000989914E0,1.131863556E1
3.798525849E0,5.725032330E0,-6.994670868E0,-7.010566711E0,1.143894494E1
3.800929130E0,5.820796013E0,-7.073675632E0,-7.032113075E0,1.154855694E1
3.803332255E0,5.911771774E0,-7.179016113E0,-7.012960434E0,1.164770071E1
3.805735745E0,5.976412773E0,-7.236474991E0,-6.924378395E0,1.166323695E1
3.808139391E0,6.014718056E0,-7.265203953E0,-6.807068348E0,1.163168953E1
3.810543609E0,6.031476498E0,-7.281962872E0,-6.687363148E0,1.158130035E1
3.812947203E0,5.945289135E0,-7.267597675E0,-6.507805824E0,1.142435887E1
3.815350068E0,5.820796013E0,-7.217321873E0,-6.311489582E0,1.121634085E1
3.817753713E0,5.586174488E0,-7.135922909E0,-6.124749660E0,1.093797511E1
3.820157151E0,5.229453564E0,-6.985094547E0,-5.923645496E0,1.054648313E1
3.822560224E0,4.855974197E0,-6.755260944E0,-5.705782413E0,1.008811126E1
3.824963661E0,4.535165310E0,-6.475151539E0,-5.569319248E0,9.670192797E0
3.827367151E0,4.243085384E0,-6.178283215E0,-5.509466648E0,9.302106203E0
3.829770953E0,3.934246302E0,-5.855079651E0,-5.466372490E0,8.924207521E0
3.832174338E0,3.623013258E0,-5.522299767E0,-5.444825649E0,8.559681427E0
3.834577203E0,3.333327055E0,-5.196702957E0,-5.456796169E0,8.239746071E0
3.836980901E0,3.129828930E0,-4.916593552E0,-5.514254570E0,8.023448432E0
3.839384234E0,3.022094488E0,-4.708306313E0,-5.564530849E0,7.890830565E0
3.841786995E0,2.971818447E0,-4.555084229E0,-5.643536091E0,7.837729060E0
3.844190224E0,2.990971088E0,-4.454531670E0,-5.768029213E0,7.877748501E0
3.846593818E0,3.046035528E0,-4.442561150E0,-5.938010216E0,8.017147082E0
3.848997828E0,3.105887890E0,-4.437773228E0,-6.215725422E0,8.244732459E0
3.851401578E0,3.103493929E0,-4.480867386E0,-6.519776344E0,8.498078058E0
3.853805172E0,3.017306089E0,-4.562266350E0,-6.828615189E0,8.749194002E0
3.856209651E0,2.876054525E0,-4.636483192E0,-7.091965675E0,8.947884843E0
3.858613609E0,2.670161963E0,-4.770552635E0,-7.254764557E0,9.084026977E0
3.861017255E0,2.452298880E0,-4.887863636E0,-7.290676117E0,9.113667701E0
3.863421213E0,2.318229437E0,-5.009963036E0,-7.309828758E0,9.160104465E0
3.865825380E0,2.282317877E0,-5.098544598E0,-7.314617157E0,9.203681658E0
3.868229703E0,2.344564438E0,-5.218249321E0,-7.343346119E0,9.308697041E0
3.870633245E0,2.478633881E0,-5.323589802E0,-7.407986641E0,9.453174089E0
3.873036786E0,2.634250402E0,-5.376259804E0,-7.484598160E0,9.584500732E0
3.875441266E0,2.832960606E0,-5.448082924E0,-7.580362320E0,9.755468530E0
3.877845328E0,3.019700527E0,-5.488782883E0,-7.697672844E0,9.924691230E0
3.880248766E0,3.180104971E0,-5.491176605E0,-7.862865448E0,1.010399630E1
3.882652516E0,3.275868893E0,-5.524694443E0,-7.980176449E0,1.024386557E1
3.885056266E0,3.283051252E0,-5.548635483E0,-8.032846451E0,1.030011667E1
3.887460380E0,3.182499170E0,-5.543846607E0,-7.992146969E0,1.023410716E1
3.889864130E0,3.000547647E0,-5.543846607E0,-7.922718048E0,1.012457321E1
3.892267307E0,2.756349325E0,-5.510329247E0,-7.810195446E0,9.947881328E0
3.894670901E0,2.507363081E0,-5.448082924E0,-7.678520203E0,9.743107803E0
3.897074286E0,2.267953396E0,-5.349925041E0,-7.546844482E0,9.524713759E0
3.899477463E0,2.050090313E0,-5.199096680E0,-7.460657120E0,9.321742393E0
3.901881005E0,1.925597310E0,-5.048268318E0,-7.441504002E0,9.196136135E0
3.904284391E0,1.801104188E0,-4.928564072E0,-7.448686600E0,9.111402316E0
3.906688193E0,1.693369746E0,-4.825617313E0,-7.431927681E0,9.021509442E0
3.909091734E0,1.611970425E0,-4.758582115E0,-7.396016121E0,8.941118882E0
3.911494963E0,1.556906104E0,-4.705912113E0,-7.321799278E0,8.841849926E0
3.913899026E0,1.511418343E0,-4.660424232E0,-7.230823517E0,8.734343030E0
3.916302672E0,1.504235864E0,-4.674789429E0,-7.115906715E0,8.645953396E0
3.918705745E0,1.556906104E0,-4.705912113E0,-6.957896233E0,8.542943604E0
3.921109495E0,1.729281306E0,-4.741823673E0,-6.790308952E0,8.460709264E0
3.923513557E0,1.951932549E0,-4.801676273E0,-6.653845787E0,8.434441266E0
3.925918141E0,2.236830235E0,-4.887863636E0,-6.598781586E0,8.511083294E0
3.928322255E0,2.579186201E0,-4.947716236E0,-6.675392628E0,8.700170352E0
3.930725745E0,2.907177687E0,-5.002780914E0,-6.826220512E0,8.948563318E0
3.933130016E0,3.170528650E0,-5.038692474E0,-7.068024635E0,9.241084678E0
3.935534130E0,3.371632814E0,-5.072209358E0,-7.362499237E0,9.555187629E0
3.937938036E0,3.467396975E0,-5.110515118E0,-7.702461243E0,9.872594175E0
3.940342359E0,3.500914097E0,-5.139244556E0,-8.013693810E0,1.014334869E1
3.942746526E0,3.472184896E0,-5.170367241E0,-8.257891655E0,1.034318809E1
3.945150953E0,3.374027014E0,-5.187126160E0,-8.437449455E0,1.046331159E1
3.947554859E0,3.283051252E0,-5.225431919E0,-8.514060020E0,1.051535935E1
3.949958349E0,3.218410730E0,-5.215855122E0,-8.494908333E0,1.047505512E1
3.952362568E0,3.175316572E0,-5.189520359E0,-8.368021011E0,1.034589448E1
3.954766422E0,3.091523409E0,-5.194308281E0,-8.166915894E0,1.016055465E1
