"Time (s)","Acceleration x (m/s^2)","Acceleration y (m/s^2)","Acceleration z (m/s^2)","Absolute acceleration (m/s^2)"
0.000000000E0,9.015340805E0,-2.240723133E0,-1.467911363E0,9.404890949E0
0.000000000E0,9.666835785E0,-2.393946886E0,-9.097676277E-1,1.000031864E1
0.000000000E0,1.010871792E1,-2.569538116E0,-4.452108443E-1,1.043967992E1
0.000000000E0,1.026373386E1,-2.487647533E0,-1.454965353E0,1.066065417E1
0.000000000E0,9.926877022E0,-2.209075689E0,-1.254856467E0,1.024683207E1
0.000000000E0,9.402279854E0,-2.087333441E0,-1.103759885E0,9.694230925E0
0.000000000E0,9.382861137E0,-2.196727514E0,-9.793180227E-1,9.686214879E0
0.000000000E0,9.338475227E0,-2.238142252E0,-6.931379437E-1,9.627919844E0
0.000000000E0,9.413431168E0,-2.301828384E0,-9.826840758E-1,9.740470638E0
0.000000000E0,9.539212227E0,-2.211516142E0,-1.138686538E0,9.858193576E0
0.000000000E0,9.559823990E0,-2.225587606E0,-3.864003420E-1,9.823073864E0
0.000000000E0,9.459662437E0,-2.227102757E0,-1.586352661E-2,9.718304984E0
0.000000000E0,9.491724014E0,-2.376861334E0,-2.549687326E-1,9.788120536E0
0.000000000E0,9.347663879E0,-2.387836456E0,2.535784841E-1,9.651159774E0
0.000000000E0,9.360897064E0,-2.443148851E0,-3.532156050E-1,9.680915836E0
1.823812600E-2,9.390397072E0,-2.208867550E0,-4.124301374E-1,9.655503697E0
2.064109500E-2,9.390397072E0,-2.208867550E0,-4.124301374E-1,9.655503697E0
2.307015700E-2,9.376032829E0,-2.187320709E0,-3.741245568E-1,9.635057482E0
2.552531400E-2,9.376032829E0,-2.187320709E0,-3.741245568E-1,9.635057482E0
2.798052200E-2,9.383214951E0,-2.177744389E0,-3.813068569E-1,9.640160183E0
3.043583400E-2,9.383214951E0,-2.177744389E0,-3.813068569E-1,9.640160183E0
3.289130300E-2,9.390397072E0,-2.158591509E0,-3.501835763E-1,9.641664950E0
3.534682400E-2,9.402367592E0,-2.184926510E0,-3.214543760E-1,9.658247931E0
3.780218900E-2,9.380820274E0,-2.170562029E0,-2.927252054E-1,9.633110432E0
4.025755300E-2,9.368849754E0,-2.127468348E0,-2.927252054E-1,9.611823726E0
4.271291800E-2,9.411943436E0,-2.125074148E0,-2.975133955E-1,9.653451900E0
4.516833400E-2,9.402367592E0,-2.139438868E0,-2.639960051E-1,9.646315820E0
4.762375100E-2,9.385608673E0,-2.132256508E0,-2.687842250E-1,9.628520807E0
5.007911600E-2,9.421519279E0,-2.151409388E0,-2.951192856E-1,9.668540907E0
5.253448000E-2,9.411943436E0,-2.160985470E0,-2.855429053E-1,9.661059579E0
5.498989700E-2,9.411943436E0,-2.153803349E0,-2.807546854E-1,9.659315260E0
5.744526200E-2,9.428702354E0,-2.151409388E0,-3.094838858E-1,9.675989392E0
5.990062600E-2,9.421519279E0,-2.170562029E0,-3.382130861E-1,9.674231398E0
6.234755300E-2,9.383214951E0,-2.184926510E0,-3.645481467E-1,9.641136967E0
6.477078200E-2,9.368849754E0,-2.225626230E0,-3.789127469E-1,9.637029247E0
6.717797000E-2,9.373639107E0,-2.213655710E0,-3.932773471E-1,9.639504592E0
6.958494900E-2,9.361667633E0,-2.230414629E0,-3.765186667E-1,9.631061032E0
7.199286600E-2,9.340120316E0,-2.247173309E0,-3.860950768E-1,9.614400907E0
7.440031400E-2,9.294632912E0,-2.244779110E0,-3.908832669E-1,9.569849735E0
7.680713700E-2,9.253933907E0,-2.263931751E0,-3.884891570E-1,9.534757655E0
7.921401200E-2,9.232386589E0,-2.247173309E0,-3.884891570E-1,9.509872441E0
8.162125100E-2,9.203657150E0,-2.254355669E0,-3.741245568E-1,9.483110967E0
8.402901200E-2,9.177321434E0,-2.259143829E0,-3.813068569E-1,9.458982739E0
8.643588700E-2,9.162958145E0,-2.256749630E0,-3.860950768E-1,9.444669940E0
8.884250100E-2,9.174927711E0,-2.232808590E0,-3.884891570E-1,9.450696087E0
9.125031400E-2,9.174927711E0,-2.235202789E0,-4.076419473E-1,9.452068661E0
9.365770900E-2,9.160563469E0,-2.232808590E0,-4.076419473E-1,9.437559495E0
9.606448000E-2,9.184504509E0,-2.213655710E0,-4.076419473E-1,9.456297724E0
9.847177200E-2,9.215627670E0,-2.204079628E0,-4.100360274E-1,9.484402454E0
1.008790640E-1,9.253933907E0,-2.172955990E0,-4.148242176E-1,9.514678639E0
1.032865640E-1,9.273085594E0,-2.177744389E0,-4.315829277E-1,9.535142940E0
1.056936990E-1,9.289844513E0,-2.175350428E0,-4.220065475E-1,9.550468579E0
1.081004180E-1,9.342514992E0,-2.163379908E0,-4.196124375E-1,9.598899603E0
1.105078140E-1,9.378426552E0,-2.156197548E0,-4.220065475E-1,9.632349764E0
1.129146370E-1,9.419125557E0,-2.146620989E0,-4.244006276E-1,9.669954696E0
1.153208870E-1,9.431097031E0,-2.149015188E0,-4.052478373E-1,9.681326525E0
1.177273450E-1,9.462219238E0,-2.149015188E0,-4.124301374E-1,9.711949228E0
1.201339590E-1,9.464613914E0,-2.151409388E0,-4.339770377E-1,9.715750870E0
1.225412510E-1,9.493342400E0,-2.160985470E0,-4.076419473E-1,9.744720626E0
1.249481780E-1,9.522072792E0,-2.151409388E0,-4.100360274E-1,9.770699164E0
1.273548450E-1,9.538830757E0,-2.163379908E0,-4.124301374E-1,9.789770347E0
1.297622410E-1,9.541224480E0,-2.156197548E0,-3.956714272E-1,9.789826777E0
1.321692200E-1,9.548407555E0,-2.151409388E0,-4.004596174E-1,9.795969431E0
1.345758340E-1,9.531648636E0,-2.141832829E0,-3.669422567E-1,9.776217070E0
1.369823970E-1,9.546013832E0,-2.172955990E0,-3.046956956E-1,9.794945497E0
1.393888550E-1,9.512495995E0,-2.192109108E0,-3.046956956E-1,9.766563462E0
1.417961470E-1,9.478979111E0,-2.189714909E0,-2.807546854E-1,9.732662511E0
1.442028140E-1,9.476584435E0,-2.208867550E0,-2.663901150E-1,9.734254573E0
1.466090120E-1,9.455038071E0,-2.213655710E0,-2.400550395E-1,9.713683284E0
1.490160950E-1,9.450249672E0,-2.223232269E0,-2.041435391E-1,9.710389033E0
1.514226570E-1,9.440672874E0,-2.249567270E0,-1.802025586E-1,9.706664215E0
1.538290640E-1,9.431097031E0,-2.244779110E0,-1.299264878E-1,9.695437347E0
1.562361470E-1,9.459825516E0,-2.228020430E0,-1.083795950E-1,9.719265402E0
1.586434390E-1,9.431097031E0,-2.254355669E0,-9.880319983E-2,9.697292032E0
1.610508340E-1,9.421519279E0,-2.244779110E0,-7.246811688E-2,9.685520658E0
1.634575530E-1,9.414338112E0,-2.247173309E0,-7.486221194E-2,9.679109170E0
1.658640120E-1,9.467007637E0,-2.259143829E0,-9.880319983E-2,9.733330700E0
1.682711990E-1,9.431097031E0,-2.251961231E0,-8.443860710E-2,9.696599944E0
1.706780220E-1,9.459825516E0,-2.256749630E0,-1.371087730E-1,9.726253981E0
1.730844280E-1,9.433490753E0,-2.256749630E0,-1.562615633E-1,9.700932139E0
1.754913550E-1,9.452643394E0,-2.263931751E0,-1.514733732E-1,9.721152108E0
1.778982300E-1,9.462219238E0,-2.256749630E0,-1.490792632E-1,9.728758216E0
1.803055220E-1,9.467007637E0,-2.285478830E0,-1.634438634E-1,9.740347067E0
1.827123970E-1,9.462219238E0,-2.261537790E0,-1.754143536E-1,9.730309157E0
1.851188550E-1,9.471796989E0,-2.292661190E0,-1.634438634E-1,9.746689050E0
1.875261470E-1,9.464613914E0,-2.290266991E0,-1.562615633E-1,9.739027524E0
1.899328140E-1,9.476584435E0,-2.273508310E0,-1.442910731E-1,9.746553878E0
1.923388550E-1,9.507707596E0,-2.283084869E0,-1.562615633E-1,9.779232993E0
1.947452090E-1,9.486160278E0,-2.273508310E0,-1.610497683E-1,9.756126992E0
1.971515120E-1,9.510101318E0,-2.283084869E0,-1.706261635E-1,9.781800289E0
1.995583870E-1,9.531648636E0,-2.275902271E0,-1.562615633E-1,9.800840502E0
2.019650010E-1,9.531648636E0,-2.304631472E0,-1.802025586E-1,9.807962321E0
2.043714590E-1,9.538830757E0,-2.280690670E0,-1.706261635E-1,9.809177103E0
2.067785950E-1,9.546013832E0,-2.292661190E0,-1.873848438E-1,9.819256005E0
2.091849490E-1,9.531648636E0,-2.295055389E0,-2.161140442E-1,9.806442282E0
2.115908870E-1,9.526860237E0,-2.290266991E0,-2.137199342E-1,9.800615546E0
2.139974490E-1,9.519679070E0,-2.299843311E0,-2.256904393E-1,9.796147458E0
2.164040640E-1,9.534042358E0,-2.287872791E0,-2.448432148E-1,9.807765994E0
2.188112510E-1,9.543620110E0,-2.278296471E0,-2.280845344E-1,9.814445586E0
2.212182300E-1,9.500525475E0,-2.268720150E0,-2.903310955E-1,9.771968459E0
2.236248970E-1,9.495738029E0,-2.271114349E0,-2.639960051E-1,9.767123169E0
2.260321370E-1,9.486160278E0,-2.263931751E0,-2.328727394E-1,9.755349994E0
2.284388030E-1,9.500525475E0,-2.254355669E0,-2.304786295E-1,9.767047874E0
2.308450010E-1,9.481372833E0,-2.271114349E0,-1.945671439E-1,9.751525397E0
2.332515640E-1,9.474190712E0,-2.278296471E0,-2.209022343E-1,9.746780097E0
2.356581260E-1,9.481372833E0,-2.283084869E0,-2.089317441E-1,9.754617358E0
2.380649490E-1,9.510101318E0,-2.280690670E0,-1.993553489E-1,9.781785091E0
2.404713030E-1,9.502920151E0,-2.292661190E0,-1.682320684E-1,9.777018398E0
2.428772410E-1,9.519679070E0,-2.309419870E0,-1.466851830E-1,9.796898809E0
2.452841160E-1,9.519679070E0,-2.275902271E0,-1.658379734E-1,9.789357638E0
2.476906780E-1,9.531648636E0,-2.307025671E0,-1.562615633E-1,9.808114541E0
2.500967200E-1,9.510101318E0,-2.316601992E0,-1.562615633E-1,9.789437652E0
2.525027620E-1,9.517283440E0,-2.323784351E0,-1.514733732E-1,9.798040721E0
2.549087510E-1,9.526860237E0,-2.323784351E0,-1.466851830E-1,9.807270580E0
2.573155220E-1,9.495738029E0,-2.328572512E0,-1.347146779E-1,9.778007911E0
2.597217200E-1,9.500525475E0,-2.328572512E0,-1.442910731E-1,9.782793780E0
2.621277620E-1,9.476584435E0,-2.347725391E0,-1.466851830E-1,9.764168352E0
2.645345320E-1,9.478979111E0,-2.342936993E0,-1.442910731E-1,9.765306890E0
2.669408870E-1,9.476584435E0,-2.362090111E0,-1.538674682E-1,9.767742699E0
2.693474490E-1,9.455038071E0,-2.347725391E0,-1.969612539E-1,9.744144558E0
2.717543240E-1,9.459825516E0,-2.338149071E0,-2.017494440E-1,9.746586208E0
2.741612510E-1,9.455038071E0,-2.338149071E0,-2.400550395E-1,9.742808241E0
2.765685430E-1,9.483766556E0,-2.328572512E0,-2.903310955E-1,9.769768174E0
2.789751050E-1,9.464613914E0,-2.333360910E0,-3.238484859E-1,9.753377237E0
2.813809390E-1,9.471796989E0,-2.326178551E0,-3.430012465E-1,9.759287613E0
2.837875010E-1,9.486160278E0,-2.326178551E0,-3.980655372E-1,9.775315834E0
2.861937510E-1,9.490948677E0,-2.328572512E0,-4.579179883E-1,9.783151109E0
2.885997930E-1,9.476584435E0,-2.314208031E0,-4.746766984E-1,9.766602752E0
2.910062510E-1,9.481372833E0,-2.295055389E0,-5.393173695E-1,9.770085633E0
2.934125010E-1,9.462219238E0,-2.295055389E0,-5.464996696E-1,9.751898997E0
2.958194280E-1,9.467007637E0,-2.275902271E0,-5.417114496E-1,9.751790402E0
2.982260430E-1,9.488554955E0,-2.254355669E0,-5.608642101E-1,9.768795385E0
3.006322410E-1,9.462219238E0,-2.251961231E0,-5.297409296E-1,9.740921299E0
3.030394800E-1,9.478979111E0,-2.259143829E0,-5.034058690E-1,9.757468590E0
3.054465120E-1,9.447855949E0,-2.247173309E0,-4.627062082E-1,9.722441409E0
3.078530220E-1,9.464613914E0,-2.244779110E0,-4.028537571E-1,9.735514416E0
3.102597410E-1,9.486160278E0,-2.228020430E0,-3.837009370E-1,9.751847941E0
3.126663550E-1,9.490948677E0,-2.211261749E0,-3.477894664E-1,9.751345693E0
3.150731260E-1,9.490948677E0,-2.225626230E0,-2.879369855E-1,9.752662540E0
3.174795840E-1,9.502920151E0,-2.213655710E0,-2.376609296E-1,9.760237995E0
3.198856780E-1,9.510101318E0,-2.218444109E0,-1.945671439E-1,9.767362885E0
3.222924490E-1,9.517283440E0,-2.230414629E0,-1.682320684E-1,9.776591201E0
3.246991160E-1,9.490948677E0,-2.244779110E0,-1.395028830E-1,9.753799316E0
3.271052620E-1,9.488554955E0,-2.244779110E0,-1.179559901E-1,9.751185671E0
3.295116160E-1,9.486160278E0,-2.249567270E0,-1.179559901E-1,9.749959146E0
3.319181780E-1,9.443066597E0,-2.256749630E0,-9.880319983E-2,9.709489571E0
3.343252620E-1,9.438279152E0,-2.268720150E0,-1.035913974E-1,9.707674060E0
3.367319800E-1,9.411943436E0,-2.297449350E0,-8.922680467E-2,9.688700335E0
3.391385430E-1,9.407155991E0,-2.311813831E0,-8.922680467E-2,9.687467597E0
3.415455740E-1,9.380820274E0,-2.335754871E0,-1.275323927E-1,9.668081731E0
3.439521890E-1,9.390397072E0,-2.338149071E0,-1.682320684E-1,9.678574289E0
3.463586470E-1,9.352091789E0,-2.335754871E0,-1.825966537E-1,9.641095020E0
3.487654180E-1,9.373639107E0,-2.352513552E0,-2.161140442E-1,9.666754129E0
3.511721890E-1,9.368849754E0,-2.381242752E0,-2.472373098E-1,9.669890850E0
3.535789590E-1,9.354485512E0,-2.376454592E0,-2.807546854E-1,9.655711202E0
3.559852620E-1,9.337726593E0,-2.376454592E0,-3.118779659E-1,9.640432678E0
3.583914590E-1,9.323361397E0,-2.407577753E0,-3.070898056E-1,9.634095833E0
3.607984390E-1,9.344908714E0,-2.393213272E0,-3.238484859E-1,9.651925533E0
3.632050010E-1,9.361667633E0,-2.381242752E0,-3.262425661E-1,9.665276619E0
3.656114590E-1,9.356879234E0,-2.374060631E0,-3.382130861E-1,9.659282633E0
3.680183340E-1,9.340120316E0,-2.390819073E0,-3.501835763E-1,9.647615865E0
3.704250010E-1,9.349698067E0,-2.381242752E0,-3.286366761E-1,9.653764709E0
3.728320840E-1,9.344908714E0,-2.354907513E0,-3.382130861E-1,9.642992086E0
3.752389070E-1,9.349698067E0,-2.369272232E0,-3.214543760E-1,9.650577069E0
3.776452090E-1,9.352091789E0,-2.347725391E0,-3.118779659E-1,9.647315855E0
3.800520840E-1,9.344908714E0,-2.316601992E0,-3.262425661E-1,9.633296314E0
3.824586990E-1,9.352091789E0,-2.333360910E0,-3.118779659E-1,9.643830247E0
3.848650530E-1,9.342514992E0,-2.297449350E0,-3.046956956E-1,9.625679163E0
3.872718240E-1,9.347302437E0,-2.271114349E0,-3.142720759E-1,9.624385184E0
3.896782820E-1,9.335332870E0,-2.259143829E0,-3.382130861E-1,9.610752246E0
3.920850530E-1,9.320967674E0,-2.218444109E0,-3.310307860E-1,9.587049287E0
3.944918760E-1,9.335332870E0,-2.211261749E0,-3.525776863E-1,9.600126528E0
3.968984390E-1,9.330544472E0,-2.182532549E0,-3.789127469E-1,9.589894855E0
3.993056260E-1,9.337726593E0,-2.187320709E0,-3.860950768E-1,9.598259177E0
4.017122410E-1,9.340120316E0,-2.165773869E0,-4.196124375E-1,9.597108864E0
4.041186990E-1,9.344908714E0,-2.182532549E0,-4.339770377E-1,9.606201293E0
4.065258340E-1,9.361667633E0,-2.144227028E0,-4.172183573E-1,9.613147329E0
4.089327620E-1,9.347302437E0,-2.168168068E0,-4.531298280E-1,9.606161682E0
4.113401050E-1,9.335332870E0,-2.168168068E0,-4.267947078E-1,9.593307370E0
4.137473450E-1,9.330544472E0,-2.141832829E0,-4.674943984E-1,9.584626180E0
4.161542720E-1,9.356879234E0,-2.168168068E0,-5.034058690E-1,9.617981038E0
4.185620320E-1,9.352091789E0,-2.156197548E0,-5.201646090E-1,9.611523288E0
4.209691160E-1,9.330544472E0,-2.163379908E0,-5.345291495E-1,9.592965870E0
4.233755220E-1,9.342514992E0,-2.168168068E0,-5.249527693E-1,9.605160829E0
4.257825010E-1,9.342514992E0,-2.187320709E0,-5.393173695E-1,9.610297679E0
4.281894800E-1,9.342514992E0,-2.208867550E0,-5.441055298E-1,9.615494426E0
4.305966680E-1,9.342514992E0,-2.194503069E0,-5.680465698E-1,9.613589704E0
4.330035950E-1,9.337726593E0,-2.228020430E0,-5.512878895E-1,9.615671131E0
4.354102620E-1,9.320967674E0,-2.237596750E0,-5.201646090E-1,9.599887959E0
4.378173970E-1,9.330544472E0,-2.273508310E0,-5.417114496E-1,9.618801977E0
4.402243240E-1,9.335332870E0,-2.254355669E0,-5.105881691E-1,9.617237626E0
4.426308340E-1,9.313785553E0,-2.251961231E0,-4.962235987E-1,9.595007482E0
4.450373450E-1,9.328150749E0,-2.287872791E0,-4.770708084E-1,9.616462700E0
4.474437510E-1,9.297026634E0,-2.309419870E0,-4.531298280E-1,9.590278985E0
4.498504180E-1,9.301815987E0,-2.328572512E0,-4.579179883E-1,9.599777053E0
4.522568760E-1,9.304209709E0,-2.340543032E0,-4.267947078E-1,9.603572966E0
4.546630740E-1,9.297026634E0,-2.333360910E0,-4.339770377E-1,9.595186994E0
4.570699490E-1,9.306603432E0,-2.352513552E0,-3.908832669E-1,9.607287712E0
4.594765640E-1,9.306603432E0,-2.342936993E0,-3.980655372E-1,9.605242181E0
4.618828140E-1,9.340120316E0,-2.369272232E0,-4.148242176E-1,9.644862754E0
4.642893760E-1,9.380820274E0,-2.362090111E0,-4.100360274E-1,9.682323495E0
4.666957820E-1,9.371243477E0,-2.374060631E0,-4.244006276E-1,9.676594653E0
4.691027090E-1,9.411943436E0,-2.388425112E0,-4.435534179E-1,9.720390598E0
4.715093760E-1,9.423914909E0,-2.390819073E0,-4.531298280E-1,9.733011594E0
4.739156780E-1,9.445460320E0,-2.383636713E0,-4.938294888E-1,9.754092074E0
4.763226050E-1,9.433490753E0,-2.388425112E0,-5.129822493E-1,9.744663827E0
4.787292720E-1,9.435884476E0,-2.383636713E0,-5.393173695E-1,9.747230532E0
4.811357820E-1,9.428702354E0,-2.407577753E0,-5.512878895E-1,9.746834207E0
4.835423450E-1,9.414338112E0,-2.393213272E0,-5.273468494E-1,9.728069004E0
4.859488030E-1,9.407155991E0,-2.390819073E0,-5.321350694E-1,9.720790472E0
4.883555740E-1,9.407155991E0,-2.386031151E0,-5.153763890E-1,9.718710887E0
4.907617200E-1,9.411943436E0,-2.381242752E0,-4.890412688E-1,9.720810545E0
4.931676570E-1,9.416731834E0,-2.352513552E0,-4.986176789E-1,9.718939142E0
4.955745320E-1,9.395184517E0,-2.330966473E0,-4.770708084E-1,9.691774521E0
4.979809390E-1,9.399973869E0,-2.345331430E0,-4.914354086E-1,9.700597766E0
5.003870320E-1,9.423914909E0,-2.328572512E0,-5.153763890E-1,9.721009978E0
5.027936470E-1,9.438279152E0,-2.283084869E0,-5.608642101E-1,9.726672531E0
5.052002620E-1,9.445460320E0,-2.290266991E0,-5.848052502E-1,9.736736656E0
5.076071370E-1,9.462219238E0,-2.271114349E0,-5.871993303E-1,9.748659208E0
5.100139070E-1,9.498131752E0,-2.261537790E0,-6.159285307E-1,9.783068430E0
5.124203140E-1,9.498131752E0,-2.247173309E0,-6.901455522E-1,9.784712338E0
5.148274490E-1,9.502920151E0,-2.242385149E0,-6.997219920E-1,9.788942405E0
5.172342720E-1,9.507707596E0,-2.230414629E0,-7.332393527E-1,9.793308588E0
5.196405220E-1,9.524466515E0,-2.213655710E0,-7.739390731E-1,9.808910015E0
5.220473450E-1,9.505313873E0,-2.218444109E0,-7.691508532E-1,9.791020331E0
5.244543240E-1,9.483766556E0,-2.223232269E0,-8.170328140E-1,9.775077106E0
5.268617200E-1,9.462219238E0,-2.228020430E0,-8.218209743E-1,9.755667976E0
5.292688030E-1,9.440672874E0,-2.218444109E0,-8.098505139E-1,9.731580367E0
5.316751050E-1,9.450249672E0,-2.218444109E0,-8.433679342E-1,9.743715031E0
5.340819800E-1,9.404761314E0,-2.237596750E0,-8.649148345E-1,9.705897808E0
5.364884910E-1,9.388002396E0,-2.228020430E0,-9.319495559E-1,9.693667726E0
5.388947410E-1,9.383214951E0,-2.247173309E0,-9.127967358E-1,9.691630852E0
5.413014590E-1,9.354485512E0,-2.261537790E0,-9.175850153E-1,9.667621974E0
5.437080740E-1,9.325757027E0,-2.263931751E0,-8.960380554E-1,9.638361650E0
5.461150530E-1,9.289844513E0,-2.285478830E0,-9.008262753E-1,9.609168150E0
5.485216160E-1,9.237174988E0,-2.302237511E0,-9.271613955E-1,9.564796264E0
5.509274490E-1,9.201262474E0,-2.297449350E0,-9.151908755E-1,9.527805570E0
5.533341680E-1,9.119863510E0,-2.321390390E0,-9.175850153E-1,9.455301478E0
5.557408870E-1,9.062405586E0,-2.328572512E0,-9.654669166E-1,9.406464337E0
5.581474490E-1,9.028887749E0,-2.326178551E0,-9.846197367E-1,9.375574471E0
5.605543760E-1,8.966641426E0,-2.326178551E0,-1.022925377E0,9.319771534E0
5.629610950E-1,8.894818306E0,-2.321390390E0,-1.087566018E0,9.256859396E0
5.653683340E-1,8.870877266E0,-2.328572512E0,-1.154600739E0,9.243798801E0
5.677751570E-1,8.803842545E0,-2.299843311E0,-1.224029660E0,9.181240189E0
5.701814590E-1,8.777507782E0,-2.307025671E0,-1.271911621E0,9.164320459E0
5.725885430E-1,8.743990898E0,-2.287872791E0,-1.367675543E0,9.141240349E0
5.749953140E-1,8.717654228E0,-2.251961231E0,-1.477804184E0,9.124293388E0
5.774018240E-1,8.727231979E0,-2.237596750E0,-1.518503785E0,9.136589680E0
5.798089590E-1,8.720049858E0,-2.220838070E0,-1.614267707E0,9.142059477E0
5.822161470E-1,8.676955223E0,-2.180138588E0,-1.683696628E0,9.103702024E0
5.846233870E-1,8.626679420E0,-2.196897030E0,-1.733972669E0,9.069322775E0
5.870301050E-1,8.617102623E0,-2.177744389E0,-1.820160270E0,9.072486519E0
5.894366680E-1,8.564433098E0,-2.156197548E0,-1.868042111E0,9.027086101E0
5.918442200E-1,8.502186775E0,-2.153803349E0,-1.918318272E0,8.978084084E0
5.942512510E-1,8.447121620E0,-2.141832829E0,-1.937471032E0,8.927211521E0
5.966577620E-1,8.415998459E0,-2.139438868E0,-1.973382473E0,8.905080972E0
5.990648450E-1,8.332205772E0,-2.120285988E0,-1.980564833E0,8.822919175E0
6.014720320E-1,8.277140617E0,-2.120285988E0,-2.011688232E0,8.778015665E0
6.038795320E-1,8.229258537E0,-2.086768627E0,-1.994929433E0,8.720954238E0
6.062866160E-1,8.202923775E0,-2.108315468E0,-2.023658752E0,8.707935881E0
6.086934910E-1,8.171800613E0,-2.105921507E0,-2.033235073E0,8.680280843E0
6.111010950E-1,8.176589012E0,-2.105921507E0,-2.057176113E0,8.690425008E0
6.135080220E-1,8.143072128E0,-2.122680187E0,-2.126605034E0,8.679737544E0
6.159144280E-1,8.138282776E0,-2.129862547E0,-2.109846115E0,8.672912523E0
6.183211990E-1,8.178982735E0,-2.146620989E0,-2.124210835E0,8.718716185E0
6.207278140E-1,8.169406891E0,-2.163379908E0,-2.136181355E0,8.716805169E0
6.231346890E-1,8.178982735E0,-2.201685429E0,-2.152939796E0,8.739469496E0
6.255415120E-1,8.188559532E0,-2.216049910E0,-2.169698715E0,8.756196488E0
6.279479180E-1,8.229258537E0,-2.208867550E0,-2.243915558E0,8.811069683E0
6.303548450E-1,8.279534340E0,-2.242385149E0,-2.241521358E0,8.865855742E0
6.327612510E-1,8.322628975E0,-2.271114349E0,-2.284615040E0,8.924325147E0
6.351673450E-1,8.365722656E0,-2.297449350E0,-2.287009716E0,8.971844990E0
6.375736470E-1,8.408816338E0,-2.307025671E0,-2.320526600E0,9.023048451E0
6.399798450E-1,8.451910019E0,-2.359695911E0,-2.354044437E0,9.085398889E0
6.423864590E-1,8.499792099E0,-2.388425112E0,-2.397138119E0,9.148623470E0
6.447928140E-1,8.602738380E0,-2.402789593E0,-2.399531841E0,9.248689557E0
6.471988550E-1,8.645832062E0,-2.431518793E0,-2.646124363E0,9.362941302E0
6.496057300E-1,8.676955223E0,-2.445883274E0,-2.780193806E0,9.434053982E0
6.520124490E-1,8.741595268E0,-2.484189034E0,-2.907081127E0,9.541373259E0
6.544188030E-1,8.834965706E0,-2.498553514E0,-3.160855293E0,9.710324138E0
6.568254180E-1,8.899606705E0,-2.520100594E0,-3.412235737E0,9.858867036E0
6.592318240E-1,8.985795021E0,-2.524888515E0,-3.620522499E0,1.001138139E1
6.616383870E-1,9.107893944E0,-2.539253235E0,-3.891055584E0,1.022457102E1
6.640447410E-1,9.191686630E0,-2.556012154E0,-4.147224426E0,1.040287324E1
6.664506780E-1,9.388002396E0,-2.536859035E0,-4.439304352E0,1.069007324E1
6.688569800E-1,9.584319115E0,-2.527282715E0,-4.671532154E0,1.095762490E1
6.712632820E-1,9.780634880E0,-2.488977432E0,-4.918124199E0,1.122692179E1
6.736693760E-1,9.969768524E0,-2.445883274E0,-5.169504642E0,1.149358115E1
6.760756260E-1,1.011341476E1,-2.409971714E0,-5.432855129E0,1.173051733E1
6.784818760E-1,1.023790741E1,-2.376454592E0,-5.655506611E0,1.193511791E1
6.808886990E-1,1.028339577E1,-2.321390390E0,-5.832669735E0,1.204811679E1
6.832948970E-1,1.022593784E1,-2.287872791E0,-5.969133854E0,1.205963207E1
6.857005740E-1,1.008947372E1,-2.232808590E0,-6.127144337E0,1.201352621E1
6.881073970E-1,1.009665585E1,-2.165773869E0,-6.203754902E0,1.204656011E1
6.905139070E-1,1.015172100E1,-2.098739147E0,-6.198966980E0,1.207846583E1
6.929200010E-1,1.019720745E1,-2.010157347E0,-6.201361179E0,1.210291919E1
6.953267720E-1,1.020439053E1,-1.986216307E0,-6.151084900E0,1.207934132E1
6.977338030E-1,1.020678425E1,-1.967063546E0,-6.038562298E0,1.202131517E1
7.001412510E-1,1.015411472E1,-1.957487226E0,-5.885340214E0,1.189853064E1
7.025481780E-1,1.010144424E1,-1.993398666E0,-5.677053452E0,1.175762518E1
7.049543760E-1,9.976950645E0,-2.017339706E0,-5.497496128E0,1.156856375E1
7.073614590E-1,9.895551682E0,-2.046068907E0,-5.322726727E0,1.142102276E1
7.097681260E-1,9.751905441E0,-2.074798107E0,-5.090498924E0,1.119453555E1
7.121742720E-1,9.596289635E0,-2.137044668E0,-4.913336277E0,1.099075102E1
7.145809910E-1,9.502920151E0,-2.208867550E0,-4.807995796E0,1.087664520E1
7.169876050E-1,9.407155991E0,-2.261537790E0,-4.606891155E0,1.071599660E1
7.193942720E-1,9.196475029E0,-2.340543032E0,-4.281293869E0,1.041070468E1
7.218005740E-1,9.038464546E0,-2.354907513E0,-4.027519226E0,1.017154570E1
7.242067200E-1,8.875665665E0,-2.405183792E0,-3.756986141E0,9.933644595E0
7.266136990E-1,8.581192017E0,-2.455459833E0,-3.385900974E0,9.546227780E0
7.290204700E-1,8.202923775E0,-2.517706394E0,-2.947780609E0,9.072828361E0
7.314270840E-1,7.781563282E0,-2.582347155E0,-2.495296001E0,8.570166047E0
7.338336990E-1,7.379354477E0,-2.623046875E0,-2.004505634E0,8.084138188E0
7.362400010E-1,7.075303555E0,-2.651775837E0,-1.590326786E0,7.721461958E0
7.386469280E-1,6.814347267E0,-2.649381876E0,-1.336552262E0,7.432423895E0
7.410536470E-1,6.400167942E0,-2.673322916E0,-8.266091943E-1,6.985133346E0
7.434599490E-1,6.179911137E0,-2.697263718E0,-6.255049109E-1,6.771837979E0
7.458670320E-1,6.038659096E0,-2.687687397E0,-6.757810116E-1,6.644226606E0
7.482735430E-1,5.945289135E0,-2.733175278E0,-7.476039529E-1,6.586017132E0
7.506796370E-1,5.926136494E0,-2.761904478E0,-9.415259361E-1,6.605579549E0
7.530861990E-1,5.988383293E0,-2.793027878E0,-1.224029660E0,6.720118139E0
7.554927620E-1,6.043447018E0,-2.869638920E0,-1.585538507E0,6.875464475E0
7.578997930E-1,6.091329098E0,-2.929491282E0,-1.997323513E0,7.048085595E0
7.603066160E-1,6.108088017E0,-3.027649403E0,-2.433049679E0,7.238448098E0
7.627131260E-1,6.062600136E0,-3.137778044E0,-2.875957966E0,7.407557336E0
7.651202620E-1,5.974018574E0,-3.283818007E0,-3.383506775E0,7.610550356E0
7.675267720E-1,5.981200695E0,-3.389158249E0,-3.898238182E0,7.903000463E0
7.699328660E-1,6.064994335E0,-3.453799009E0,-4.408181190E0,8.254995172E0
7.723395320E-1,6.182305336E0,-3.484922409E0,-4.875030041E0,8.609965236E0
7.747462510E-1,6.237369061E0,-3.528016090E0,-5.301179886E0,8.913707338E0
7.771534390E-1,6.302010059E0,-3.535198212E0,-5.684235573E0,9.193665821E0
7.795602620E-1,6.299615860E0,-3.520833731E0,-5.954768658E0,9.356318716E0
7.819666160E-1,6.316374779E0,-3.494498491E0,-6.151084900E0,9.483878716E0
7.843735430E-1,6.268492699E0,-3.437040329E0,-6.313883781E0,9.537943979E0
7.867802090E-1,6.230186939E0,-3.391552210E0,-6.345006943E0,9.517193325E0
7.891866160E-1,6.165545940E0,-3.283818007E0,-6.313883781E0,9.416079112E0
7.915932820E-1,6.064994335E0,-3.214389086E0,-6.220513821E0,9.263435954E0
7.939998450E-1,5.921348095E0,-3.152142525E0,-6.100809097E0,9.067427276E0
7.964066680E-1,5.806431770E0,-3.075531244E0,-5.921251774E0,8.845041826E0
7.988129700E-1,5.681938171E0,-3.022861242E0,-5.768029213E0,8.642469119E0
8.012187510E-1,5.574203968E0,-2.972584963E0,-5.617201328E0,8.453458582E0
8.036252090E-1,5.511957169E0,-2.939067841E0,-5.509466648E0,8.329106455E0
8.060314590E-1,5.464075565E0,-2.910338640E0,-5.471160889E0,8.261948575E0
8.084372410E-1,5.495198727E0,-2.867244720E0,-5.516648769E0,8.297693353E0
8.108437510E-1,5.564627647E0,-2.869638920E0,-5.667477131E0,8.445129094E0
8.132504180E-1,5.667573452E0,-2.874427080E0,-5.928433418E0,8.690802188E0
8.156569800E-1,5.856707573E0,-2.895974159E0,-6.273184299E0,9.057622822E0
8.180629700E-1,6.012324333E0,-2.922309160E0,-6.704121590E0,9.467480182E0
8.204688550E-1,6.179911137E0,-2.967797041E0,-7.197306156E0,9.939835856E0
8.228758870E-1,6.373833179E0,-3.008496523E0,-7.695278645E0,1.043523426E1
8.252825530E-1,6.522267342E0,-3.058772802E0,-8.257891655E0,1.095850523E1
8.276886470E-1,6.644366264E0,-3.130595684E0,-8.815716743E0,1.147454113E1
8.300949490E-1,6.752100468E0,-3.214389086E0,-9.366358757E0,1.198548432E1
8.325014070E-1,6.828711510E0,-3.271847486E0,-9.919396400E0,1.247921119E1
8.349086470E-1,6.864623070E0,-3.353246927E0,-1.041976357E1,1.292047939E1
8.373156780E-1,6.826317787E0,-3.427463770E0,-1.094646549E1,1.334807961E1
8.397219800E-1,6.752100468E0,-3.499286890E0,-1.135824966E1,1.366915158E1
8.421288550E-1,6.618031025E0,-3.585474253E0,-1.174609375E1,1.395079491E1
8.445358340E-1,6.469596863E0,-3.659691572E0,-1.204775047E1,1.415617595E1
8.469425530E-1,6.299615860E0,-3.721938133E0,-1.228955460E1,1.430283663E1
8.493495840E-1,6.091329098E0,-3.800943375E0,-1.242362404E1,1.434914266E1
8.517567200E-1,5.875860214E0,-3.867978096E0,-1.251220512E1,1.435417239E1
8.541643760E-1,5.624480247E0,-3.901495457E0,-1.252896404E1,1.427695293E1
8.565714590E-1,5.377887726E0,-3.927830458E0,-1.249065781E1,1.415507192E1
8.589780220E-1,5.164813042E0,-3.956559896E0,-1.239010620E1,1.399444146E1
8.613854700E-1,4.970890999E0,-3.956559896E0,-1.227758408E1,1.382400789E1
8.637927090E-1,4.760210037E0,-3.963742018E0,-1.213154411E1,1.362149819E1
8.661995840E-1,4.544741631E0,-3.949377298E0,-1.197592735E1,1.340429385E1
8.686066680E-1,4.360395432E0,-3.954165459E0,-1.179637051E1,1.318343013E1
8.710133340E-1,4.219144344E0,-3.954165459E0,-1.161441803E1,1.297425565E1
8.734203140E-1,4.075498104E0,-3.925436497E0,-1.147077179E1,1.279051766E1
8.758269800E-1,3.953398943E0,-3.894313097E0,-1.130797386E1,1.259624192E1
8.782329180E-1,3.855241060E0,-3.870372057E0,-1.116672230E1,1.243134548E1
8.806394280E-1,3.790600061E0,-3.827278376E0,-1.107574654E1,1.231620355E1
8.830455220E-1,3.754688740E0,-3.796154976E0,-1.095364666E1,1.218568239E1
8.854510430E-1,3.740324259E0,-3.769819975E0,-1.082197094E1,1.205473447E1
8.878573450E-1,3.733141661E0,-3.733908653E0,-1.070705509E1,1.193815100E1
8.902638030E-1,3.737929821E0,-3.707573652E0,-1.057537937E1,1.181341909E1
8.926702620E-1,3.733141661E0,-3.674056053E0,-1.046046352E1,1.169856109E1
8.950763030E-1,3.704412699E0,-3.650115013E0,-1.032399940E1,1.155988654E1
8.974821890E-1,3.718777180E0,-3.628568411E0,-1.017556477E1,1.142531972E1
8.998889070E-1,3.711594820E0,-3.595050812E0,-1.003191948E1,1.128449090E1
9.022952090E-1,3.728353739E0,-3.602233171E0,-9.890666962E0,1.116700490E1
9.047012510E-1,3.711594820E0,-3.590262651E0,-9.720685959E0,1.100716392E1
9.071077090E-1,3.764265060E0,-3.578292131E0,-9.586617470E0,1.090307757E1
9.095141160E-1,3.850452662E0,-3.563927650E0,-9.462122917E0,1.081939629E1
9.119209390E-1,3.881575823E0,-3.590262651E0,-9.340023994E0,1.073278459E1
9.143274490E-1,3.946216822E0,-3.590262651E0,-9.198773384E0,1.063391014E1
9.167336470E-1,4.006069183E0,-3.604627371E0,-9.074278831E0,1.055388389E1
9.191408340E-1,4.085074425E0,-3.599838972E0,-8.942604065E0,1.046980617E1
9.215476570E-1,4.156897545E0,-3.614203691E0,-8.813323021E0,1.039311927E1
9.239538030E-1,4.240691185E0,-3.618991852E0,-8.691224098E0,1.032559635E1
9.263602620E-1,4.307725430E0,-3.657297373E0,-8.499695778E0,1.020672086E1
9.287666160E-1,4.374760628E0,-3.681238413E0,-8.305773735E0,1.008344803E1
9.311732300E-1,4.439401150E0,-3.719544172E0,-8.107063293E0,9.963321066E0
9.335794280E-1,4.518406391E0,-3.762637854E0,-7.905959129E0,9.852798064E0
9.359853140E-1,4.595017433E0,-3.779396296E0,-7.735978127E0,9.759271445E0
9.383922410E-1,4.685993195E0,-3.777002335E0,-7.527691841E0,9.637967800E0
9.407986990E-1,4.767392635E0,-3.810519934E0,-7.352922440E0,9.555813053E0
9.432046890E-1,4.776968956E0,-3.798549414E0,-7.139847755E0,9.392860907E0
9.456108870E-1,4.832033157E0,-3.777002335E0,-6.914802551E0,9.242769357E0
9.480171370E-1,4.834427834E0,-3.769819975E0,-6.730456829E0,9.103970796E0
9.504239070E-1,4.839215755E0,-3.750667334E0,-6.546111107E0,8.963095737E0
9.528301570E-1,4.870338917E0,-3.731514692E0,-6.392889023E0,8.860780616E0
9.552361990E-1,4.934979439E0,-3.745879173E0,-6.270790100E0,8.815239153E0
9.576430220E-1,4.997226238E0,-3.721938133E0,-6.165449619E0,8.765720880E0
9.600493240E-1,5.095384121E0,-3.724332094E0,-6.100809097E0,8.778010055E0
9.624552090E-1,5.236636162E0,-3.724332094E0,-6.060109138E0,8.832775929E0
9.648616160E-1,5.404222965E0,-3.707573652E0,-6.060109138E0,8.926177850E0
9.672678140E-1,5.583780289E0,-3.659691572E0,-6.098414421E0,9.042267590E0
9.696745320E-1,5.741790771E0,-3.630962372E0,-6.129538059E0,9.150042941E0
9.720814070E-1,5.899801254E0,-3.602233171E0,-6.213331699E0,9.294580650E0
9.744880740E-1,6.045841217E0,-3.544774771E0,-6.304306984E0,9.426659575E0
9.768952620E-1,6.160758018E0,-3.508863211E0,-6.407253742E0,9.556147807E0
9.793017720E-1,6.230186939E0,-3.465769529E0,-6.498229027E0,9.646438110E0
9.817078140E-1,6.244551659E0,-3.420281649E0,-6.589205265E0,9.701050355E0
9.841142720E-1,6.225398540E0,-3.396340609E0,-6.651451588E0,9.722783796E0
9.865206780E-1,6.170334816E0,-3.362823248E0,-6.699333668E0,9.708897133E0
9.889275530E-1,6.084146976E0,-3.348458529E0,-6.713697910E0,9.659335307E0
9.913339590E-1,5.933318615E0,-3.374793768E0,-6.754397392E0,9.602884301E0
9.937398970E-1,5.734608650E0,-3.391552210E0,-6.761579990E0,9.492487910E0
9.961468760E-1,5.545474529E0,-3.432252169E0,-6.775944710E0,9.404577046E0
9.985533870E-1,5.349158764E0,-3.494498491E0,-6.787915230E0,9.322060521E0
1.000959532E0,5.148054123E0,-3.595050812E0,-6.799885750E0,9.255554970E0
1.003366043E0,5.011590481E0,-3.705179214E0,-6.842979431E0,9.255850023E0
1.005772553E0,4.968497276E0,-3.786578894E0,-6.943531513E0,9.340062889E0
1.008179741E0,4.958920479E0,-3.870372057E0,-7.111118793E0,9.494139385E0
1.010586564E0,5.028349876E0,-3.954165459E0,-7.235611439E0,9.657836189E0
1.012992866E0,5.171995163E0,-3.994865417E0,-7.429533482E0,9.894768892E0
1.015399793E0,5.370705605E0,-4.035564899E0,-7.580362320E0,1.012877859E1
1.017806303E0,5.557445049E0,-4.052323341E0,-7.702461243E0,1.032639478E1
1.020212605E0,5.782490730E0,-4.025988579E0,-7.824560165E0,1.052945986E1
1.022619376E0,6.000353813E0,-3.980500937E0,-7.891594410E0,1.068297224E1
1.025026043E0,6.196669579E0,-3.963742018E0,-7.858077049E0,1.076379764E1
1.027433022E0,6.373833179E0,-3.908677816E0,-7.762313843E0,1.077761698E1
1.029839741E0,6.536631584E0,-3.863189936E0,-7.597120762E0,1.074095121E1
1.032246147E0,6.704218864E0,-3.803337336E0,-7.391228199E0,1.067905332E1
1.034653334E0,6.900534630E0,-3.726726294E0,-7.144636154E0,1.060903826E1
1.037060105E0,7.072909832E0,-3.671662092E0,-6.881285191E0,1.052897155E1
1.039466564E0,7.259649754E0,-3.595050812E0,-6.632298470E0,1.046968423E1
1.041873282E0,7.436812878E0,-3.525622129E0,-6.421617985E0,1.043903131E1
1.044280053E0,7.635523319E0,-3.506469011E0,-6.237272739E0,1.046423014E1
1.046687189E0,7.788744926E0,-3.439434290E0,-6.084050179E0,1.046469887E1
1.049093803E0,7.970696926E0,-3.405917168E0,-5.952374458E0,1.051489624E1
1.051500105E0,8.131101608E0,-3.432252169E0,-5.856610775E0,1.059221686E1
1.053907084E0,8.267564774E0,-3.417887688E0,-5.756058693E0,1.063798831E1
1.056313855E0,8.408816338E0,-3.437040329E0,-5.686629772E0,1.071723829E1
1.058719949E0,8.564433098E0,-3.460981369E0,-5.641141891E0,1.082360329E1
1.061126251E0,8.715260506E0,-3.494498491E0,-5.612412453E0,1.093921656E1
1.063532605E0,8.870877266E0,-3.535198212E0,-5.578895092E0,1.105957324E1
1.065939376E0,9.038464546E0,-3.595050812E0,-5.557348728E0,1.120278343E1
1.068345522E0,9.186898232E0,-3.628568411E0,-5.523830891E0,1.131716906E1
1.070751251E0,9.340120316E0,-3.709967613E0,-5.502284050E0,1.145761044E1
1.073157918E0,9.457431793E0,-3.788972855E0,-5.432855129E0,1.154622216E1
1.075564272E0,9.531648636E0,-3.844037056E0,-5.358638287E0,1.159068380E1
1.077970574E0,9.577136993E0,-3.906283617E0,-5.298785686E0,1.162143427E1
1.080377137E0,9.605865479E0,-3.944589376E0,-5.214992046E0,1.162017982E1
1.082783543E0,9.557983398E0,-3.958953857E0,-5.097681522E0,1.153320073E1
1.085190626E0,9.467007637E0,-3.980500937E0,-4.982764721E0,1.141475210E1
1.087597397E0,9.325757027E0,-3.978106499E0,-4.906153679E0,1.126345504E1
1.090003491E0,9.158169746E0,-3.966135979E0,-4.815177441E0,1.108098558E1
1.092410262E0,8.949882507E0,-3.958953857E0,-4.714625835E0,1.086284536E1
1.094816876E0,8.732019424E0,-3.963742018E0,-4.697866917E0,1.067845343E1
1.097223230E0,8.506974220E0,-3.958953857E0,-4.685896397E0,1.048806708E1
1.099629637E0,8.305870056E0,-3.982894897E0,-4.690684795E0,1.033699439E1
1.102036095E0,8.090401649E0,-4.030776501E0,-4.757719517E0,1.021458041E1
1.104443022E0,7.889297962E0,-4.112175941E0,-4.882212639E0,1.014825175E1
1.106849428E0,7.733681202E0,-4.174422741E0,-5.013888359E0,1.011803868E1
1.109255678E0,7.623552799E0,-4.279762745E0,-5.205416203E0,1.017503240E1
1.111662918E0,7.489483356E0,-4.401861668E0,-5.444825649E0,1.025255448E1
1.114069741E0,7.403295040E0,-4.504808426E0,-5.696206093E0,1.037057570E1
1.116476147E0,7.331472874E0,-4.610148430E0,-5.914069176E0,1.048714343E1
1.118883126E0,7.274013996E0,-4.751400471E0,-6.163055420E0,1.065224569E1
1.121289949E0,7.187826633E0,-4.837587833E0,-6.443165302E0,1.079729072E1
1.123696876E0,7.139944553E0,-4.880681992E0,-6.706515789E0,1.094427791E1
1.126103699E0,7.077698231E0,-4.887863636E0,-6.924378395E0,1.104228415E1
1.128510157E0,7.029816151E0,-4.883075714E0,-7.144636154E0,1.114937529E1
1.130917293E0,6.950810432E0,-4.823223114E0,-7.314617157E0,1.118395597E1
1.133324116E0,6.828711510E0,-4.760976791E0,-7.460657120E0,1.117853325E1
1.135730470E0,6.728159428E0,-4.665212631E0,-7.561209202E0,1.114469483E1
1.138137137E0,6.565360546E0,-4.562266350E0,-7.621061802E0,1.104530744E1
1.140543855E0,6.400167942E0,-4.432985306E0,-7.616273403E0,1.089133274E1
1.142951043E0,6.246945858E0,-4.342009544E0,-7.594726562E0,1.074975586E1
1.145357709E0,6.062600136E0,-4.215122223E0,-7.527691841E0,1.054459673E1
1.147763751E0,5.935712814E0,-4.145693302E0,-7.482203484E0,1.041166790E1
1.150170678E0,5.775308132E0,-4.085840702E0,-7.364892960E0,1.021224395E1
1.152577501E0,5.638844490E0,-4.033170700E0,-7.240400314E0,1.002429198E1
1.154983855E0,5.497592449E0,-3.954165459E0,-7.142241478E0,9.842284315E0
1.157390574E0,5.365917206E0,-3.889525175E0,-7.029719353E0,9.661181487E0
1.159797449E0,5.231847763E0,-3.810519934E0,-6.902832031E0,9.462630883E0
1.162204584E0,5.114537239E0,-3.726726294E0,-6.799885750E0,9.288994900E0
1.164611303E0,5.016379356E0,-3.630962372E0,-6.737638950E0,9.151159938E0
1.167017605E0,4.932585716E0,-3.566321611E0,-6.713697910E0,9.062162618E0
1.169424480E0,4.858368874E0,-3.460981369E0,-6.718486309E0,8.984442021E0
1.171831251E0,4.788939476E0,-3.427463770E0,-6.699333668E0,8.919782553E0
1.174237657E0,4.681205273E0,-3.413099289E0,-6.730456829E0,8.880426718E0
1.176644376E0,4.563894272E0,-3.417887688E0,-6.720880508E0,8.813700811E0
1.179051095E0,4.432218552E0,-3.441828489E0,-6.742427349E0,8.772175967E0
1.181458230E0,4.288573265E0,-3.487316370E0,-6.814249992E0,8.774237236E0
1.183865001E0,4.164079666E0,-3.501681089E0,-6.898043633E0,8.785461620E0
1.186271303E0,4.044374466E0,-3.532804251E0,-7.029719353E0,8.846164416E0
1.188678282E0,4.008463383E0,-3.513651609E0,-7.194911957E0,8.954344442E0
1.191084845E0,3.989310503E0,-3.499286890E0,-7.372075081E0,9.083341787E0
1.193490939E0,4.044374466E0,-3.516045570E0,-7.554026604E0,9.261903649E0
1.195897553E0,4.144927025E0,-3.511257410E0,-7.721613407E0,9.441009599E0
1.198304532E0,4.274208069E0,-3.530410051E0,-7.870047569E0,9.626541357E0
1.200711928E0,4.434613228E0,-3.549562931E0,-8.040028572E0,9.844148055E0
1.203118543E0,4.654870033E0,-3.566321611E0,-8.159733772E0,1.004826951E1
1.205524532E0,4.896674156E0,-3.544774771E0,-8.267468452E0,1.024177136E1
1.207931407E0,5.128901482E0,-3.532804251E0,-8.377596855E0,1.043889196E1
1.210338387E0,5.346764565E0,-3.501681089E0,-8.439843178E0,1.058681324E1
1.212745105E0,5.476045609E0,-3.456192970E0,-8.492512703E0,1.067965905E1
1.215151928E0,5.571809769E0,-3.393946648E0,-8.480543137E0,1.069969859E1
1.217558855E0,5.610115528E0,-3.300576687E0,-8.504484177E0,1.070950297E1
1.219966199E0,5.567021847E0,-3.190448046E0,-8.502090454E0,1.065158359E1
1.222373022E0,5.485621929E0,-3.097078323E0,-8.432661057E0,1.052585933E1
1.224779637E0,5.270153522E0,-2.979767323E0,-8.341685295E0,1.030714534E1
1.227187084E0,5.033137798E0,-2.881609440E0,-8.193250656E0,1.003820230E1
1.229594116E0,4.753028393E0,-2.793027878E0,-8.044816971E0,9.752505510E0
1.232000678E0,4.463342190E0,-2.685293436E0,-7.795830727E0,9.375884015E0
1.234407293E0,4.171262264E0,-2.591923475E0,-7.542056084E0,9.000005897E0
1.236813907E0,3.874393702E0,-2.539253235E0,-7.254764557E0,8.607574706E0
1.239220834E0,3.551190138E0,-2.450671673E0,-6.981837273E0,8.207484069E0
1.241627397E0,3.242351532E0,-2.390819073E0,-6.656239510E0,7.780384547E0
1.244033699E0,2.935906887E0,-2.366878033E0,-6.452741623E0,7.473923690E0
1.246440991E0,2.643826962E0,-2.330966473E0,-6.256424904E0,7.180952463E0
1.248848126E0,2.385264158E0,-2.285478830E0,-6.134325981E0,6.967270185E0
1.251254897E0,2.167401075E0,-2.239990711E0,-6.103203297E0,6.853048686E0
1.253661824E0,2.006996632E0,-2.218444109E0,-6.177420139E0,6.863676079E0
1.256068855E0,1.923203349E0,-2.180138588E0,-6.313883781E0,6.951031851E0
1.258476407E0,1.901656508E0,-2.129862547E0,-6.550899506E0,7.146110570E0
1.260883334E0,1.959114671E0,-2.081980467E0,-6.847767830E0,7.420559090E0
1.263289741E0,2.040513992E0,-2.019733667E0,-7.235611439E0,7.784413551E0
1.265696980E0,2.227253675E0,-1.947910786E0,-7.609091282E0,8.164146342E0
1.268103751E0,2.421175718E0,-1.883270025E0,-8.042423248E0,8.607518199E0
1.270510105E0,2.641432762E0,-1.770747423E0,-8.420690536E0,9.001152292E0
1.272916928E0,2.909571886E0,-1.691742182E0,-8.885146141E0,9.501232663E0
1.275323699E0,3.244745731E0,-1.622313380E0,-9.332841873E0,1.001310207E1
1.277730991E0,3.565554857E0,-1.569643259E0,-9.737444878E0,1.048784030E1
1.280138022E0,3.843270540E0,-1.540913939E0,-1.004149532E1,1.086171131E1
1.282544480E0,4.068315506E0,-1.516972899E0,-1.030963421E1,1.118664183E1
1.284951772E0,4.252661705E0,-1.476273298E0,-1.052749729E1,1.144957264E1
1.287358751E0,4.326878548E0,-1.440361857E0,-1.068311405E1,1.161574131E1
1.289765262E0,4.355607510E0,-1.392479777E0,-1.074057198E1,1.167348290E1
1.292172137E0,4.317302227E0,-1.346991897E0,-1.077169514E1,1.168258969E1
1.294578855E0,4.209567547E0,-1.315868735E0,-1.070944881E1,1.158206646E1
1.296985782E0,4.068315506E0,-1.306292295E0,-1.056819725E1,1.139931506E1
1.299392084E0,3.972551584E0,-1.267986655E0,-1.032878685E1,1.113879679E1
1.301798282E0,3.876787901E0,-1.251228094E0,-1.007740688E1,1.086964515E1
1.304205366E0,3.840876341E0,-1.234469295E0,-9.742233276E0,1.054454147E1
1.306611876E0,3.833693743E0,-1.229681253E0,-9.457335472E0,1.027864378E1
1.309018126E0,3.852846861E0,-1.263198614E0,-9.165255547E0,1.002207608E1
1.311425262E0,3.936640024E0,-1.279957175E0,-8.911480904E0,9.825981729E0
1.313832501E0,4.099439144E0,-1.315868735E0,-8.736711502E0,9.739971237E0
1.316239741E0,4.228720665E0,-1.354174376E0,-8.585883141E0,9.666087937E0
1.318646512E0,4.379548550E0,-1.370932937E0,-8.463784218E0,9.627852611E0
1.321052918E0,4.530376434E0,-1.397268057E0,-8.411113739E0,9.655231897E0
1.323460262E0,4.685993195E0,-1.418814898E0,-8.365626335E0,9.693052765E0
1.325867293E0,4.844003677E0,-1.457120538E0,-8.356050491E0,9.767863211E0
1.328273595E0,4.997226238E0,-1.464302778E0,-8.368021011E0,9.855974247E0
1.330680105E0,5.148054123E0,-1.526549339E0,-8.432661057E0,9.997128919E0
1.333087137E0,5.270153522E0,-1.622313380E0,-8.494908333E0,1.012767922E1
1.335494637E0,5.306064606E0,-1.763565183E0,-8.470966339E0,1.014996327E1
1.337901355E0,5.198330879E0,-1.921575665E0,-8.420690536E0,1.008082963E1
1.340307918E0,4.985255718E0,-2.060433626E0,-8.341685295E0,9.933875118E0
1.342715262E0,4.690781593E0,-2.230414629E0,-8.190856934E0,9.698882342E0
1.345122293E0,4.233508587E0,-2.362090111E0,-8.059181213E0,9.404917144E0
1.347529324E0,3.804964781E0,-2.493765354E0,-7.908353806E0,9.123523581E0
1.349936303E0,3.383603334E0,-2.587135315E0,-7.788648605E0,8.877222976E0
1.352342918E0,3.036458969E0,-2.702052116E0,-7.724007607E0,8.728199254E0
1.354750105E0,2.785078764E0,-2.824151039E0,-7.692884445E0,8.655227548E0
1.357156876E0,2.696496964E0,-2.939067841E0,-7.740766525E0,8.707966585E0
1.359562918E0,2.694103003E0,-3.003708363E0,-7.867653847E0,8.841969914E0
1.361969897E0,2.801837444E0,-3.025255442E0,-8.116640091E0,9.103972205E0
1.364376616E0,3.010123968E0,-3.025255442E0,-8.447025299E0,9.463892074E0
1.366782970E0,3.223198652E0,-2.970191002E0,-8.798957825E0,9.830193434E0
1.369189793E0,3.429091215E0,-2.903156281E0,-9.189196587E0,1.022879841E1
1.371596512E0,3.611042738E0,-2.814574480E0,-9.579434395E0,1.061729827E1
1.374003699E0,3.749900341E0,-2.745145798E0,-9.928973198E0,1.096275909E1
1.376410522E0,3.871999502E0,-2.666140556E0,-1.024738789E1,1.127429129E1
1.378816720E0,3.936640024E0,-2.587135315E0,-1.051073933E1,1.151807471E1
1.381223855E0,4.003674984E0,-2.529676914E0,-1.073099613E1,1.172957615E1
1.383630939E0,4.082680702E0,-2.493765354E0,-1.092252445E1,1.192428982E1
1.386037501E0,4.154503345E0,-2.517706394E0,-1.104462337E1,1.206575522E1
1.388444116E0,4.233508587E0,-2.546435595E0,-1.110686874E1,1.215604633E1
1.390850626E0,4.329272747E0,-2.591923475E0,-1.112123394E1,1.221239183E1
1.393257866E0,4.444189072E0,-2.675716877E0,-1.105659294E1,1.221304732E1
1.395664584E0,4.537559032E0,-2.754722118E0,-1.090576553E1,1.212904192E1
1.398070730E0,4.623746872E0,-2.843303919E0,-1.073817825E1,1.203211887E1
1.400477657E0,4.707540035E0,-2.931885481E0,-1.052989101E1,1.190107098E1
1.402884428E0,4.757816315E0,-3.006102562E0,-1.025457001E1,1.169742171E1
1.405290782E0,4.824851036E0,-3.082713604E0,-9.996006966E0,1.151965563E1
1.407697293E0,4.877521038E0,-3.111442804E0,-9.725474358E0,1.131618926E1
1.410103959E0,4.934979439E0,-3.159324884E0,-9.464517593E0,1.113159688E1
1.412511043E0,4.999619961E0,-3.178477526E0,-9.244259834E0,1.097976589E1
1.414917553E0,5.112142563E0,-3.223965645E0,-9.062309265E0,1.089281439E1
1.417323543E0,5.265365124E0,-3.267059326E0,-8.899510384E0,1.084430872E1
1.419730366E0,5.440134525E0,-3.302970886E0,-8.798957825E0,1.085938945E1
1.422136928E0,5.655602932E0,-3.365217209E0,-8.798957825E0,1.098782008E1
1.424543074E0,5.868678093E0,-3.391552210E0,-8.806139946E0,1.111270038E1
1.426949428E0,6.074570656E0,-3.420281649E0,-8.813323021E0,1.123714367E1
1.429355782E0,6.189486980E0,-3.432252169E0,-8.794170380E0,1.128838061E1
1.431762605E0,6.234975338E0,-3.475345850E0,-8.743894577E0,1.128754352E1
1.434168907E0,6.208640099E0,-3.472951889E0,-8.667283058E0,1.121295689E1
1.436574845E0,6.050629616E0,-3.504075050E0,-8.516453743E0,1.101901289E1
1.438981772E0,5.825583935E0,-3.537592649E0,-8.324926376E0,1.075901432E1
1.441388178E0,5.545474529E0,-3.621385813E0,-8.083122253E0,1.045005207E1
1.443794324E0,5.243818283E0,-3.757849693E0,-7.834136009E0,1.014853445E1
1.446201043E0,5.009196758E0,-3.906283617E0,-7.551632404E0,9.868042148E0
1.448607762E0,4.963708878E0,-4.081052780E0,-7.391228199E0,9.794062074E0
1.451014845E0,5.025955200E0,-4.253427982E0,-7.326587677E0,9.850419395E0
1.453421459E0,5.181571484E0,-4.442561150E0,-7.290676117E0,9.986941016E0
1.455827709E0,5.428164005E0,-4.590995789E0,-7.221247196E0,1.013353926E1
1.458234689E0,5.725032330E0,-4.739429951E0,-7.156606674E0,1.031771343E1
1.460641095E0,6.029082775E0,-4.832799911E0,-7.060842514E0,1.046715296E1
1.463047032E0,6.378621101E0,-4.897440434E0,-6.917196751E0,1.060751341E1
1.465453699E0,6.744918346E0,-4.909410954E0,-6.754397392E0,1.073397054E1
1.467860470E0,7.118397713E0,-4.861528873E0,-6.541323185E0,1.082104237E1
1.470267709E0,7.532576561E0,-4.835193634E0,-6.256424904E0,1.092069868E1
1.472674480E0,7.987455845E0,-4.816040993E0,-5.945192814E0,1.106069705E1
1.475080939E0,8.449515343E0,-4.832799911E0,-5.593260288E0,1.122652329E1
1.477487970E0,8.885241508E0,-4.883075714E0,-5.183868885E0,1.138702954E1
1.479894637E0,9.313785553E0,-4.935745716E0,-4.760113716E0,1.156576282E1
1.482301303E0,9.646565437E0,-4.986021996E0,-4.298052788E0,1.167860856E1
1.484708126E0,9.919492722E0,-4.983627796E0,-3.816838264E0,1.173887287E1
1.487114793E0,1.011820221E1,-4.945322514E0,-3.342806816E0,1.174770565E1
1.489521876E0,1.022833157E1,-4.861528873E0,-2.931022167E0,1.169803918E1
1.491928699E0,1.027860737E1,-4.806464195E0,-2.488113880E0,1.161647873E1
1.494335209E0,1.025466633E1,-4.749006271E0,-2.112240314E0,1.149664304E1
1.496742449E0,1.019242001E1,-4.722671509E0,-1.769884109E0,1.137196296E1
1.499149220E0,1.014214325E1,-4.713094711E0,-1.484986424E0,1.128191101E1
1.501555522E0,1.003919792E1,-4.722671509E0,-1.276699781E0,1.116776985E1
1.503962293E0,9.967374802E0,-4.780129433E0,-1.094748259E0,1.110840545E1
1.506368959E0,9.874004364E0,-4.835193634E0,-1.027713537E0,1.104224863E1
1.508775522E0,9.749511719E0,-4.859134674E0,-1.032501698E0,1.094213088E1
1.511181720E0,9.627412796E0,-4.923775196E0,-1.152206659E0,1.087465951E1
1.513587918E0,9.457431793E0,-4.981234074E0,-1.348522782E0,1.077377477E1
1.515995157E0,9.234780312E0,-5.067421436E0,-1.566385746E0,1.064957707E1
1.518401928E0,8.990582466E0,-5.170367241E0,-1.822554231E0,1.053019346E1
1.520808230E0,8.722443581E0,-5.299648762E0,-2.097875595E0,1.041961521E1
1.523215001E0,8.518944740E0,-5.376259804E0,-2.524025440E0,1.038495515E1
1.525621616E0,8.425574303E0,-5.402595520E0,-3.117761612E0,1.048326181E1
1.528028647E0,8.339387894E0,-5.404989243E0,-3.644463539E0,1.058496167E1
1.530435418E0,8.289112091E0,-5.376259804E0,-4.187923908E0,1.073090189E1
1.532841668E0,8.298687935E0,-5.328377724E0,-4.719414234E0,1.093310118E1
1.535248595E0,8.313053131E0,-5.242190361E0,-5.224568844E0,1.113029792E1
1.537655366E0,8.351357460E0,-5.129667759E0,-5.712965012E0,1.134445380E1
1.540061876E0,8.353752136E0,-5.019539356E0,-6.167843819E0,1.153357046E1
1.542468647E0,8.389663696E0,-4.868711472E0,-6.570052147E0,1.171564738E1
1.544875366E0,8.404028893E0,-4.746612072E0,-6.871708393E0,1.184813926E1
1.547282241E0,8.401633263E0,-4.581419468E0,-7.135059834E0,1.193674682E1
1.549688855E0,8.394452095E0,-4.418620110E0,-7.324193001E0,1.198477504E1
1.552095470E0,8.356146812E0,-4.272580147E0,-7.460657120E0,1.198922580E1
1.554502762E0,8.286717415E0,-4.143299103E0,-7.542056084E0,1.194651510E1
1.556909376E0,8.183771133E0,-4.025988579E0,-7.577967644E0,1.185783655E1
1.559315366E0,8.044913292E0,-3.887130737E0,-7.597120762E0,1.172802878E1
1.561721720E0,7.896480083E0,-3.800943375E0,-7.592332840E0,1.159504576E1
1.564128282E0,7.683404922E0,-3.721938133E0,-7.520509720E0,1.137741628E1
1.566535366E0,7.467936039E0,-3.645326853E0,-7.441504002E0,1.115501942E1
1.568941928E0,7.250072956E0,-3.609415293E0,-7.276310921E0,1.088743024E1
1.571347918E0,7.022633553E0,-3.575898170E0,-7.058448792E0,1.057951460E1
1.573754376E0,6.776041508E0,-3.530410051E0,-6.780733109E0,1.021552129E1
1.576160418E0,6.495932102E0,-3.492104530E0,-6.469500065E0,9.810522872E0
1.578566303E0,6.254127979E0,-3.453799009E0,-6.167843819E0,9.438492557E0
1.580972866E0,6.014718056E0,-3.413099289E0,-5.842246056E0,9.053061307E0
1.583379480E0,5.801643372E0,-3.422675848E0,-5.554954052E0,8.731053218E0
1.585786251E0,5.650815010E0,-3.425069809E0,-5.305968285E0,8.474438796E0
1.588192605E0,5.531110287E0,-3.451404810E0,-5.145563602E0,8.305552417E0
1.590598699E0,5.432951927E0,-3.482527971E0,-5.030646801E0,8.182443092E0
1.593005730E0,5.409011364E0,-3.563927650E0,-4.987553120E0,8.175247419E0
1.595412501E0,5.413799286E0,-3.630962372E0,-5.023464680E0,8.229721006E0
1.597818699E0,5.416193485E0,-3.697997093E0,-5.095287800E0,8.304955878E0
1.600225209E0,5.428164005E0,-3.774608374E0,-5.205416203E0,8.414807822E0
1.602631876E0,5.413799286E0,-3.851219416E0,-5.301179886E0,8.499624808E0
1.605038595E0,5.456892967E0,-3.930224657E0,-5.377790928E0,8.610748050E0
1.607445262E0,5.502381325E0,-3.999653578E0,-5.444825649E0,8.713182848E0
1.609851720E0,5.567021847E0,-4.057111740E0,-5.533407688E0,8.835750594E0
1.612258907E0,5.648421288E0,-4.112175941E0,-5.574107170E0,8.937859070E0
1.614665834E0,5.780096531E0,-4.124146461E0,-5.672265053E0,9.088052089E0
1.617072345E0,5.928530693E0,-4.116963863E0,-5.791970253E0,9.254392851E0
1.619479220E0,6.069782257E0,-4.095417500E0,-5.914069176E0,9.412274718E0
1.621885991E0,6.155970097E0,-4.033170700E0,-6.057714939E0,9.531964331E0
1.624293230E0,6.153575420E0,-3.939800978E0,-6.218119621E0,9.594453284E0
1.626700209E0,6.062600136E0,-3.791366816E0,-6.385706425E0,9.586804957E0
1.629106668E0,5.856707573E0,-3.650115013E0,-6.526958466E0,9.498713072E0
1.631513699E0,5.540686607E0,-3.504075050E0,-6.680180550E0,9.359624042E0
1.633920209E0,5.160024643E0,-3.319729567E0,-6.816644669E0,9.171319602E0
1.636326147E0,4.731481075E0,-3.154536486E0,-6.926773071E0,8.962042110E0
1.638732866E0,4.255055428E0,-2.979767323E0,-7.020142555E0,8.733092893E0
1.641139584E0,3.761870861E0,-2.821756840E0,-7.063236713E0,8.485475644E0
1.643546459E0,3.297415972E0,-2.702052116E0,-7.111118793E0,8.291082452E0
1.645953230E0,2.861689806E0,-2.599105835E0,-7.099148273E0,8.083472391E0
1.648359428E0,2.567215681E0,-2.512917995E0,-7.094359398E0,7.952061901E0
1.650766303E0,2.373293638E0,-2.424336672E0,-7.103936195E0,7.872473592E0
1.653172709E0,2.308652878E0,-2.333360910E0,-7.096754074E0,7.819102866E0
1.655578543E0,2.296682358E0,-2.268720150E0,-7.056054115E0,7.759493582E0
1.657984689E0,2.332593918E0,-2.201685429E0,-7.041689396E0,7.737816401E0
1.660390991E0,2.337382078E0,-2.141832829E0,-7.029719353E0,7.711534025E0
1.662797970E0,2.373293638E0,-2.079586267E0,-7.063236713E0,7.736052909E0
1.665204637E0,2.332593918E0,-2.046068907E0,-7.087177753E0,7.736632398E0
1.667610730E0,2.260771275E0,-1.995792747E0,-7.156606674E0,7.766034672E0
1.670017605E0,2.184159994E0,-1.979034066E0,-7.247581959E0,7.823974371E0
1.672424116E0,2.052484512E0,-1.986216307E0,-7.439110279E0,7.968570112E0
1.674830314E0,1.951932549E0,-1.981428146E0,-7.613879204E0,8.106001154E0
1.677236928E0,1.875321269E0,-1.916787505E0,-7.858077049E0,8.303028310E0
1.679643387E0,1.817862868E0,-1.878481984E0,-8.169310570E0,8.577351290E0
1.682050314E0,1.944749951E0,-1.761171103E0,-8.576307297E0,8.968657808E0
1.684456980E0,2.244012356E0,-1.648648500E0,-9.069491386E0,9.487323508E0
1.686863439E0,2.718043804E0,-1.514578938E0,-9.548311234E0,1.004250760E1
1.689270574E0,3.292627573E0,-1.442755938E0,-1.006064796E1,1.068361261E1
1.691677084E0,3.900728464E0,-1.373327136E0,-1.051792145E1,1.130169817E1
1.694083439E0,4.556712151E0,-1.327839255E0,-1.094407082E1,1.192893410E1
1.696490053E0,5.138478279E0,-1.318262815E0,-1.125769711E1,1.244497971E1
1.698896512E0,5.590962887E0,-1.263198614E0,-1.150429058E1,1.285314119E1
1.701303282E0,5.868678093E0,-1.198557854E0,-1.159287071E1,1.304885339E1
1.703709741E0,6.026688576E0,-1.074064732E0,-1.166230011E1,1.317132621E1
1.706115991E0,5.930924892E0,-9.495716691E-1,-1.159765911E1,1.306075240E1
1.708522866E0,5.677150249E0,-8.370490074E-1,-1.145880222E1,1.281541394E1
1.710929168E0,5.332400322E0,-7.436791658E-1,-1.125769711E1,1.247891406E1
1.713335053E0,4.927797318E0,-6.574915648E-1,-1.099195194E1,1.206393340E1
1.715741303E0,4.575864792E0,-5.928509235E-1,-1.068550777E1,1.163916179E1
1.718147709E0,4.286178589E0,-5.449689627E-1,-1.031442356E1,1.118282842E1
1.720554793E0,4.120985985E0,-5.425748229E-1,-9.988824844E0,1.081912819E1
1.722961616E0,4.080286026E0,-5.258161426E-1,-9.639286995E0,1.048050907E1
1.725368282E0,4.252661705E0,-5.401807427E-1,-9.363965034E0,1.029858087E1
1.727775574E0,4.535165310E0,-5.665158629E-1,-9.158073425E0,1.023518312E1
1.730182137E0,4.889491558E0,-6.263683438E-1,-9.026396751E0,1.028471212E1
1.732588334E0,5.286911964E0,-6.934030652E-1,-8.952179909E0,1.041987385E1
1.734994637E0,5.693908691E0,-7.915611267E-1,-8.923451424E0,1.061485518E1
1.737400678E0,6.041053295E0,-8.633840680E-1,-8.997668266E0,1.087188076E1
1.739807501E0,6.385803699E0,-9.352070689E-1,-9.081461906E0,1.114118717E1
1.742214220E0,6.682671547E0,-1.023788691E0,-9.227501869E0,1.143910106E1
1.744620157E0,6.902928829E0,-1.109976172E0,-9.332841873E0,1.166123540E1
1.747026720E0,7.039391994E0,-1.222498775E0,-9.354389191E0,1.177081731E1
1.749433126E0,7.082486153E0,-1.366144776E0,-9.311295509E0,1.177829299E1
1.751839116E0,7.127974033E0,-1.497820258E0,-9.174832344E0,1.171447941E1
1.754245626E0,7.087274075E0,-1.627101541E0,-8.933028221E0,1.151850279E1
1.756652189E0,6.969963551E0,-1.794688463E0,-8.573913574E0,1.119434199E1
1.759059064E0,6.783223629E0,-1.919181585E0,-8.145369530E0,1.077229899E1
1.761465522E0,6.493537426E0,-2.084374666E0,-7.654579163E0,1.025198655E1
1.763871564E0,6.165545940E0,-2.204079628E0,-7.149424076E0,9.694647408E0
1.766278543E0,5.816008091E0,-2.304631472E0,-6.677786827E0,9.150416015E0
1.768685001E0,5.447316647E0,-2.388425112E0,-6.273184299E0,8.644690533E0
1.771090887E0,5.109748840E0,-2.460247993E0,-5.928433418E0,8.204186504E0
1.773497345E0,4.796121597E0,-2.582347155E0,-5.681841850E0,7.871126096E0
1.775904064E0,4.563894272E0,-2.718810558E0,-5.562136650E0,7.691451481E0
1.778311043E0,4.369972229E0,-2.912732601E0,-5.502284050E0,7.606299906E0
1.780717241E0,4.252661705E0,-3.123413324E0,-5.566924572E0,7.670168940E0
1.783122970E0,4.130562782E0,-3.310153008E0,-5.756058693E0,7.819902398E0
1.785529689E0,3.989310503E0,-3.528016090E0,-5.995468616E0,8.019173259E0
1.787936095E0,3.800176382E0,-3.733908653E0,-6.297125340E0,8.248466640E0
1.790341980E0,3.682865620E0,-3.915860176E0,-6.665816307E0,8.563326873E0
1.792748543E0,3.663712978E0,-4.112175941E0,-7.046478271E0,8.943469114E0
1.795155053E0,3.742718220E0,-4.286945343E0,-7.431927681E0,9.360522907E0
1.797561720E0,3.881575823E0,-4.425802708E0,-7.793436527E0,9.766883504E0
1.799968178E0,4.118592262E0,-4.535931110E0,-8.152551651E0,1.019811609E1
1.802374324E0,4.353213787E0,-4.605360508E0,-8.509272575E0,1.060978489E1
1.804780939E0,4.592623711E0,-4.614936829E0,-8.808533669E0,1.095354280E1
1.807187032E0,4.812880516E0,-4.569448948E0,-9.062309265E0,1.123250336E1
1.809592657E0,5.011590481E0,-4.516778946E0,-9.323266029E0,1.150828487E1
1.811998647E0,5.150448799E0,-4.409044266E0,-9.507611275E0,1.167739125E1
1.814404949E0,5.243818283E0,-4.296521187E0,-9.648862839E0,1.179229743E1
1.816812084E0,5.298882484E0,-4.155269623E0,-9.780539513E0,1.187448417E1
1.819219064E0,5.397040844E0,-3.990077019E0,-9.897849083E0,1.195893728E1
1.821625418E0,5.452105045E0,-3.829672575E0,-9.912214279E0,1.194335938E1
1.824032241E0,5.483228207E0,-3.688420534E0,-9.871514320E0,1.187926903E1
1.826438751E0,5.511957169E0,-3.508863211E0,-9.818843842E0,1.179421414E1
1.828844637E0,5.507169247E0,-3.362823248E0,-9.730261803E0,1.167542239E1
1.831250678E0,5.516745567E0,-3.207206726E0,-9.610558510E0,1.153618184E1
1.833656980E0,5.531110287E0,-3.094684124E0,-9.517188072E0,1.143447068E1
1.836063699E0,5.545474529E0,-2.989343882E0,-9.445364952E0,1.135356260E1
1.838470001E0,5.538292885E0,-2.872033119E0,-9.399877548E0,1.128179774E1
1.840875939E0,5.550262928E0,-2.804998398E0,-9.385512352E0,1.125883105E1
1.843282762E0,5.610115528E0,-2.730781078E0,-9.368754387E0,1.125629248E1
1.845689116E0,5.641238689E0,-2.685293436E0,-9.351995468E0,1.124696377E1
1.848094845E0,5.753761292E0,-2.711628437E0,-9.316082954E0,1.128042993E1
1.850501199E0,5.868678093E0,-2.740357637E0,-9.284959793E0,1.132084011E1
1.852907501E0,6.007535458E0,-2.804998398E0,-9.272990227E0,1.139942306E1
1.855314064E0,6.139211178E0,-2.900762081E0,-9.280172348E0,1.149895358E1
1.857720366E0,6.215822697E0,-3.006102562E0,-9.232290268E0,1.152858569E1
1.860126303E0,6.266098499E0,-3.128201485E0,-9.191590309E0,1.155573309E1
1.862533022E0,6.323556423E0,-3.262271166E0,-9.160467148E0,1.159930762E1
1.864939428E0,6.299615860E0,-3.389158249E0,-9.103009224E0,1.157740604E1
1.867345574E0,6.290039539E0,-3.499286890E0,-9.045550346E0,1.155991294E1
1.869752345E0,6.234975338E0,-3.635750532E0,-8.937815666E0,1.148817428E1
1.872158907E0,6.175122738E0,-3.798549414E0,-8.786988258E0,1.139176374E1
1.874565834E0,6.084146976E0,-3.949377298E0,-8.631371498E0,1.127452879E1
1.876972449E0,6.036265373E0,-4.093023300E0,-8.485331535E0,1.118884224E1
1.879378387E0,5.990777016E0,-4.272580147E0,-8.317744255E0,1.110536897E1
1.881785157E0,5.971624374E0,-4.435379505E0,-8.190856934E0,1.106449395E1
1.884191772E0,6.005141735E0,-4.579025269E0,-8.047210693E0,1.103570567E1
1.886598178E0,6.029082775E0,-4.720276833E0,-7.917929649E0,1.101473842E1
1.889004845E0,6.110482216E0,-4.830405235E0,-7.829348087E0,1.104398022E1
1.891411407E0,6.196669579E0,-4.952504158E0,-7.721613407E0,1.107019986E1
1.893818334E0,6.280463219E0,-5.048268318E0,-7.640214443E0,1.110414823E1
1.896224793E0,6.359467983E0,-5.134455681E0,-7.520509720E0,1.110691382E1
1.898630991E0,6.448050022E0,-5.237402439E0,-7.372075081E0,1.110653971E1
1.901037918E0,6.483961582E0,-5.328377724E0,-7.154211998E0,1.102796973E1
1.903444168E0,6.539025784E0,-5.424141884E0,-6.924378395E0,1.096025499E1
1.905850053E0,6.555784702E0,-5.567787647E0,-6.637087345E0,1.086413829E1
1.908256564E0,6.553390026E0,-5.677916527E0,-6.270790100E0,1.070086283E1
1.910663282E0,6.481567383E0,-5.792833328E0,-5.811122894E0,1.045642305E1
1.913070522E0,6.443261623E0,-5.874232769E0,-5.377790928E0,1.024416254E1
1.915477032E0,6.517478466E0,-5.823956490E0,-5.068952084E0,1.010397298E1
1.917882970E0,6.704218864E0,-5.689887047E0,-4.848695278E0,1.004147455E1
1.920289741E0,6.957993031E0,-5.546240807E0,-4.580555916E0,1.000779429E1
1.922695939E0,7.226132393E0,-5.393018723E0,-4.231018066E0,9.960078021E0
1.925101772E0,7.463147640E0,-5.237402439E0,-3.876690865E0,9.907456236E0
1.927508178E0,7.700163841E0,-5.060238838E0,-3.517576218E0,9.862650898E0
1.929914689E0,7.953938007E0,-4.909410954E0,-3.256619453E0,9.898131945E0
1.932321407E0,8.167012215E0,-4.732247353E0,-3.062697411E0,9.923425263E0
1.934727553E0,8.339387894E0,-4.545507908E0,-2.887928486E0,9.927092400E0
1.937133595E0,8.485427856E0,-4.432985306E0,-2.739493847E0,9.957844705E0
1.939540522E0,8.626679420E0,-4.346797943E0,-2.629365444E0,1.001138416E1
1.941946980E0,8.832571983E0,-4.322856903E0,-2.535995960E0,1.015542688E1
1.944353178E0,9.076769829E0,-4.332432747E0,-2.512054920E0,1.036668433E1
1.946759793E0,9.368849754E0,-4.397073746E0,-2.514448643E0,1.065044859E1
1.949166303E0,9.675294876E0,-4.485655308E0,-2.598242283E0,1.097648839E1
1.951573230E0,9.964981079E0,-4.602966309E0,-2.753858566E0,1.131688490E1
1.953979793E0,1.019242001E1,-4.713094711E0,-2.976510048E0,1.161715539E1
1.956385678E0,1.036000633E1,-4.835193634E0,-3.242254734E0,1.188364609E1
1.958792137E0,1.048689365E1,-4.954898834E0,-3.515182018E0,1.211950765E1
1.961198387E0,1.053238201E1,-4.995598316E0,-3.797685623E0,1.226007706E1
1.963604324E0,1.048449993E1,-5.081785679E0,-4.008366585E0,1.232137521E1
1.966010991E0,1.037676525E1,-5.091362476E0,-4.116101265E0,1.226953620E1
1.968417605E0,1.017326641E1,-5.127274036E0,-4.185529709E0,1.213684257E1
1.970824376E0,9.938645363E0,-5.093756199E0,-4.142436028E0,1.191145667E1
1.973230939E0,9.689660072E0,-5.088968277E0,-3.953302383E0,1.163682561E1
1.975637293E0,9.428702354E0,-5.036297798E0,-3.677980900E0,1.130452419E1
1.978044376E0,9.177321434E0,-4.954898834E0,-3.338018894E0,1.095064479E1
1.980450939E0,9.000158310E0,-4.837587833E0,-2.986086369E0,1.064527207E1
1.982857137E0,8.858906746E0,-4.715488911E0,-2.624577522E0,1.037325752E1
1.985263907E0,8.779901505E0,-4.593389988E0,-2.291797638E0,1.017045911E1
1.987670574E0,8.758355141E0,-4.435379505E0,-2.057176113E0,1.003062060E1
1.990077709E0,8.779901505E0,-4.263004303E0,-1.896771431E0,9.942716831E0
1.992484637E0,8.803842545E0,-4.100205421E0,-1.829736590E0,9.882674943E0
1.994891199E0,8.849330902E0,-3.966135979E0,-1.801007390E0,9.863291521E0
1.997298595E0,8.849330902E0,-3.863189936E0,-1.891983151E0,9.839435662E0
1.999705053E0,8.791872978E0,-3.803337336E0,-2.026052713E0,9.791184553E0
2.002110887E0,8.720049858E0,-3.791366816E0,-2.258280277E0,9.773103994E0
2.004517293E0,8.624285698E0,-3.824884415E0,-2.502478123E0,9.760657833E0
2.006923959E0,8.471062660E0,-3.887130737E0,-2.780193806E0,9.726158829E0
2.009331303E0,8.274746895E0,-3.975712538E0,-3.060303211E0,9.676940741E0
2.011738126E0,8.042519569E0,-4.076264381E0,-3.330836296E0,9.612102931E0
2.014144272E0,7.771986485E0,-4.183999062E0,-3.570246696E0,9.521359332E0
2.016550939E0,7.496665001E0,-4.303703785E0,-3.733045101E0,9.415810009E0
2.018957345E0,7.228526115E0,-4.406650066E0,-3.912602425E0,9.326232484E0
2.021363387E0,6.967569828E0,-4.471291065E0,-4.001184464E0,9.195050310E0
2.023769689E0,6.716189384E0,-4.550295830E0,-4.142436028E0,9.108905984E0
2.026176251E0,6.481567383E0,-4.617331028E0,-4.286082268E0,9.038858488E0
2.028583022E0,6.232581139E0,-4.653242111E0,-4.446486473E0,8.959295271E0
2.030989220E0,6.009930134E0,-4.703518391E0,-4.599709034E0,8.910649172E0
2.033395209E0,5.772913933E0,-4.717882633E0,-4.858271599E0,8.898750179E0
2.035801928E0,5.538292885E0,-4.708306313E0,-5.119228840E0,8.890857120E0
2.038208387E0,5.274941444E0,-4.674789429E0,-5.437643528E0,8.902057660E0
2.040614741E0,5.030743599E0,-4.629301548E0,-5.801546574E0,8.966423848E0
2.043021407E0,4.774575233E0,-4.557478428E0,-6.218119621E0,9.068196618E0
2.045427918E0,4.539953232E0,-4.478472710E0,-6.658634186E0,9.219832015E0
2.047834793E0,4.372365952E0,-4.377920628E0,-7.099148273E0,9.417095053E0
2.050241251E0,4.192809105E0,-4.263004303E0,-7.546844482E0,9.628484591E0
2.052647345E0,4.049163342E0,-4.138511181E0,-7.980176449E0,9.859321210E0
2.055054272E0,3.994098425E0,-4.004441738E0,-8.363231659E0,1.009613885E1
2.057460887E0,3.939034224E0,-3.863189936E0,-8.763047218E0,1.035525102E1
2.059867241E0,3.881575823E0,-3.695603132E0,-9.057520866E0,1.052439061E1
2.062273907E0,3.826511621E0,-3.551957130E0,-9.366358757E0,1.072321160E1
2.064680522E0,3.721171141E0,-3.429857969E0,-9.610558510E0,1.086157793E1
2.067087814E0,3.625407457E0,-3.247906685E0,-9.790115356E0,1.093338172E1
2.069494689E0,3.560766697E0,-3.109048843E0,-9.962490082E0,1.102707816E1
2.071901043E0,3.486549616E0,-2.953432322E0,-1.005586052E1,1.104532125E1
2.074308178E0,3.460214376E0,-2.802603960E0,-1.015880585E1,1.109184424E1
2.076714949E0,3.508096457E0,-2.656563997E0,-1.018274689E1,1.109289895E1
2.079121564E0,3.532037497E0,-2.488977432E0,-1.018274689E1,1.106158360E1
2.081528282E0,3.493731976E0,-2.352513552E0,-1.007740688E1,1.092220731E1
2.083934584E0,3.378815174E0,-2.254355669E0,-9.938549042E0,1.073653895E1
2.086341095E0,3.271080732E0,-2.129862547E0,-9.747020721E0,1.049955697E1
2.088747293E0,3.165740490E0,-2.019733667E0,-9.615345955E0,1.032260213E1
2.091153439E0,2.969424248E0,-1.993398666E0,-9.380723953E0,1.003937750E1
2.093560574E0,2.758743763E0,-1.911999345E0,-9.124555588E0,9.722341452E0
2.095967137E0,2.567215681E0,-1.890452504E0,-8.892328262E0,9.446581866E0
2.098373230E0,2.356534958E0,-1.892846465E0,-8.679253578E0,9.190515079E0
2.100779845E0,2.143460274E0,-1.892846465E0,-8.511666298E0,8.979184420E0
2.103186564E0,1.980661511E0,-1.866511464E0,-8.430267334E0,8.858684575E0
2.105593751E0,1.951932549E0,-1.770747423E0,-8.504484177E0,8.903473380E0
2.108000574E0,2.069243193E0,-1.674983501E0,-8.707982063E0,9.105838168E0
2.110407032E0,2.433146238E0,-1.526549339E0,-9.035974503E0,9.481528817E0
2.112814012E0,3.022094488E0,-1.349386096E0,-9.442971230E0,1.000617827E1
2.115220262E0,3.709200621E0,-1.279957175E0,-9.835602760E0,1.058940703E1
2.117626355E0,4.408277512E0,-1.224892974E0,-1.019711208E1,1.117650966E1
2.120032866E0,5.083413601E0,-1.236863494E0,-1.049637413E1,1.172794931E1
2.122439376E0,5.703485012E0,-1.248834014E0,-1.072620773E1,1.221232410E1
2.124846616E0,6.242157459E0,-1.212922454E0,-1.088421822E1,1.260563036E1
2.127253491E0,6.639577866E0,-1.162646294E0,-1.101349926E1,1.291250969E1
2.129660157E0,6.902928829E0,-1.052517891E0,-1.108053398E1,1.309719259E1
2.132067397E0,7.013057232E0,-9.759067893E-1,-1.107095814E1,1.314159351E1
2.134474168E0,7.005875111E0,-8.897191882E-1,-1.097758770E1,1.305301950E1
2.136880626E0,6.864623070E0,-8.346548676E-1,-1.077648449E1,1.280438662E1
2.139286980E0,6.677883625E0,-7.915611267E-1,-1.051313305E1,1.247985037E1
2.141693282E0,6.495932102E0,-7.652260661E-1,-1.020908165E1,1.212468775E1
2.144100157E0,6.364256859E0,-7.460732460E-1,-9.847573280E0,1.174883357E1
2.146506720E0,6.290039539E0,-7.676201463E-1,-9.466912270E0,1.139193864E1
2.148912762E0,6.266098499E0,-8.322608471E-1,-9.076673508E0,1.106086120E1
2.151319897E0,6.311586380E0,-8.921132684E-1,-8.688830376E0,1.077625918E1
2.153726928E0,6.364256859E0,-9.998477101E-1,-8.351262093E0,1.054737121E1
2.156133334E0,6.416926861E0,-1.133917212E0,-8.020875931E0,1.033427159E1
2.158539793E0,6.469596863E0,-1.308686495E0,-7.745554447E0,1.017653957E1
2.160946095E0,6.486355782E0,-1.505002499E0,-7.518115044E0,1.004290285E1
2.163353074E0,6.452837944E0,-1.722865462E0,-7.350528717E0,9.931649176E0
2.165759637E0,6.448050022E0,-1.931152105E0,-7.252370834E0,9.894623806E0
2.168165574E0,6.462414742E0,-2.105921507E0,-7.295464039E0,9.971033308E0
2.170572501E0,6.450444221E0,-2.283084869E0,-7.324193001E0,1.002319861E1
2.172979324E0,6.436079502E0,-2.474612474E0,-7.324193001E0,1.005935532E1
2.175385678E0,6.381015301E0,-2.675716877E0,-7.314617157E0,1.006878549E1
2.177792397E0,6.333133221E0,-2.879215240E0,-7.242794037E0,1.004273480E1
2.180199064E0,6.187093258E0,-3.113837004E0,-7.125483036E0,9.937233637E0
2.182605991E0,5.981200695E0,-3.302970886E0,-6.921984673E0,9.726163182E0
2.185012709E0,5.708273888E0,-3.472951889E0,-6.761579990E0,9.506037532E0
2.187418907E0,5.361129284E0,-3.616597891E0,-6.565264225E0,9.215431723E0
2.189825678E0,4.903856277E0,-3.733908653E0,-6.371342182E0,8.864755012E0
2.192232189E0,4.362790108E0,-3.812913895E0,-6.124749660E0,8.431180718E0
2.194638491E0,3.821723461E0,-3.913465977E0,-5.873369694E0,8.026036240E0
2.197045157E0,3.359662533E0,-3.987683058E0,-5.739300251E0,7.754257919E0
2.199451772E0,3.000547647E0,-4.061899662E0,-5.708176613E0,7.621390640E0
2.201858907E0,2.725226164E0,-4.183999062E0,-5.770422935E0,7.630890292E0
2.204265522E0,2.548062801E0,-4.334827423E0,-5.957163334E0,7.795585149E0
2.206671720E0,2.442722559E0,-4.432985306E0,-6.256424904E0,8.047428459E0
2.209078959E0,2.425963879E0,-4.540719986E0,-6.675392628E0,8.429964737E0
2.211485939E0,2.469057560E0,-4.648453712E0,-7.161394596E0,8.887628464E0
2.213892345E0,2.598338842E0,-4.705912113E0,-7.731190205E0,9.416383358E0
2.216299116E0,2.840142965E0,-4.734642029E0,-8.346473694E0,1.000734082E1
2.218705887E0,3.189681530E0,-4.784917831E0,-9.002455711E0,1.068240215E1
2.221112970E0,3.575131178E0,-4.820829391E0,-9.636893272E0,1.135304677E1
2.223519428E0,4.020433903E0,-4.851952553E0,-1.020668793E1,1.199507444E1
2.225925626E0,4.463342190E0,-4.854346275E0,-1.074536037E1,1.260749265E1
2.228332762E0,4.875127316E0,-4.835193634E0,-1.117150974E1,1.311291706E1
2.230739689E0,5.284518242E0,-4.823223114E0,-1.158329487E1,1.361478367E1
2.233146147E0,5.674756050E0,-4.782523155E0,-1.186101055E1,1.399138861E1
2.235552501E0,6.036265373E0,-4.684365273E0,-1.209802628E1,1.430880908E1
2.237959012E0,6.342709541E0,-4.557478428E0,-1.220815468E1,1.449274352E1
2.240366147E0,6.613242626E0,-4.421014786E0,-1.223927784E1,1.459726933E1
2.242772709E0,6.833499432E0,-4.229486942E0,-1.213393784E1,1.455395897E1
2.245178699E0,7.010663033E0,-4.052323341E0,-1.191128635E1,1.440310603E1
2.247585470E0,7.104032993E0,-3.832066536E0,-1.157850742E1,1.411431376E1
2.249992032E0,7.132761955E0,-3.602233171E0,-1.113080978E1,1.370209120E1
2.252398439E0,7.106427193E0,-3.379581928E0,-1.060889721E1,1.320876911E1
2.254805001E0,6.993904591E0,-3.166507006E0,-1.001037216E1,1.261542781E1
2.257211355E0,6.816740990E0,-2.965402842E0,-9.404664993E0,1.198788119E1
2.259618230E0,6.579725742E0,-2.807392359E0,-8.763047218E0,1.131217217E1
2.262024637E0,6.290039539E0,-2.680505037E0,-8.190856934E0,1.066957553E1
2.264430782E0,5.969230175E0,-2.599105835E0,-7.647396564E0,1.004339257E1
2.266837814E0,5.648421288E0,-2.520100594E0,-7.159000397E0,9.460806346E0
2.269244168E0,5.327611446E0,-2.520100594E0,-6.756792068E0,8.965968424E0
2.271650001E0,5.013984680E0,-2.512917995E0,-6.419224262E0,8.524156225E0
2.274056407E0,4.719510555E0,-2.560800076E0,-6.172631741E0,8.181250486E0
2.276462814E0,4.470524788E0,-2.615864277E0,-6.043350697E0,7.959298049E0
2.278869584E0,4.274208069E0,-2.687687397E0,-5.978709698E0,7.825438506E0
2.281275991E0,4.135350704E0,-2.769086838E0,-5.973921776E0,7.775391228E0
2.283681876E0,4.085074425E0,-2.881609440E0,-6.031380177E0,7.833840237E0
2.286088595E0,4.135350704E0,-2.991737843E0,-6.153479099E0,7.994806176E0
2.288494845E0,4.231114864E0,-3.099472284E0,-6.294731140E0,8.193454800E0
2.290900730E0,4.369972229E0,-3.223965645E0,-6.435982704E0,8.420955120E0
2.293306980E0,4.585441113E0,-3.343670607E0,-6.605963707E0,8.708912666E0
2.295713126E0,4.757816315E0,-3.475345850E0,-6.742427349E0,8.954058935E0
2.298119897E0,4.911038876E0,-3.556745291E0,-6.910014153E0,9.193314717E0
2.300526459E0,5.025955200E0,-3.693208933E0,-7.020142555E0,9.390549472E0
2.302932657E0,5.124113083E0,-3.791366816E0,-7.180547714E0,9.601628127E0
2.305339480E0,5.188754082E0,-3.870372057E0,-7.333769798E0,9.781979771E0
2.307745991E0,5.279729843E0,-3.913465977E0,-7.496568680E0,9.969418496E0
2.310152032E0,5.322823524E0,-3.980500937E0,-7.645002842E0,1.013029646E1
2.312558491E0,5.339581966E0,-4.014018059E0,-7.783860207E0,1.025728796E1
2.314965157E0,5.401828766E0,-4.061899662E0,-7.910747528E0,1.040474456E1
2.317372501E0,5.442528725E0,-4.066688061E0,-8.047210693E0,1.053169837E1
2.319779532E0,5.540686607E0,-4.078658581E0,-8.193250656E0,1.069878592E1
2.322185834E0,5.624480247E0,-4.109781742E0,-8.284227371E0,1.082374737E1
2.324592709E0,5.703485012E0,-4.140904903E0,-8.382385254E0,1.095176777E1
2.326999376E0,5.818402290E0,-4.126540661E0,-8.523636818E0,1.111460875E1
2.329405782E0,5.866284370E0,-4.143299103E0,-8.549972534E0,1.116612064E1
2.331812605E0,5.782490730E0,-4.217516422E0,-8.351262093E0,1.099855547E1
2.334219428E0,5.569415569E0,-4.368344307E0,-7.994541168E0,1.067771091E1
2.336626303E0,5.478440285E0,-4.476078987E0,-7.714431763E0,1.046714137E1
2.339032762E0,5.614903450E0,-4.468896866E0,-7.714431763E0,1.053615857E1
2.341439116E0,5.935712814E0,-4.377920628E0,-7.728796005E0,1.068331238E1
2.343846355E0,6.234975338E0,-4.207939625E0,-7.700066566E0,1.076441817E1
2.346253178E0,6.594089985E0,-4.040352821E0,-7.446292400E0,1.073562966E1
2.348659584E0,6.981934071E0,-3.970924377E0,-7.099148273E0,1.071977378E1
2.351066355E0,7.424842358E0,-3.899101257E0,-6.649057388E0,1.070239407E1
2.353473074E0,7.877327442E0,-3.822490215E0,-6.179814339E0,1.071698765E1
2.355880262E0,8.325022697E0,-3.741090775E0,-5.681841850E0,1.075105064E1
2.358286928E0,8.746384621E0,-3.688420534E0,-5.174292564E0,1.081096635E1
2.360693126E0,9.074376106E0,-3.640538931E0,-4.652379036E0,1.082785556E1
2.363100053E0,9.361667633E0,-3.626173973E0,-4.101736546E0,1.084500813E1
2.365506512E0,9.608260155E0,-3.693208933E0,-3.555881977E0,1.089048906E1
2.367912657E0,9.838093758E0,-3.779396296E0,-3.074667931E0,1.097841100E1
2.370319064E0,1.007750320E1,-3.913465977E0,-2.653306484E0,1.113154626E1
2.372725522E0,1.030494308E1,-4.057111740E0,-2.315738678E0,1.131435607E1
2.375132657E0,1.052041149E1,-4.195969105E0,-2.114634514E0,1.152201778E1
2.377539480E0,1.071672726E1,-4.356373787E0,-2.002111912E0,1.174030186E1
2.379945574E0,1.090586185E1,-4.516778946E0,-1.987747073E0,1.197039069E1
2.382352449E0,1.101838398E1,-4.677183151E0,-2.042811394E0,1.214306000E1
2.384758959E0,1.111893559E1,-4.820829391E0,-2.112240314E0,1.230173499E1
2.387165366E0,1.121948910E1,-5.012356758E0,-2.212792397E0,1.248587626E1
2.389572241E0,1.123624706E1,-5.153608799E0,-2.284615040E0,1.257109373E1
2.391978803E0,1.119794178E1,-5.340348244E0,-2.306162357E0,1.261870058E1
2.394385678E0,1.114287663E1,-5.507935524E0,-2.255886078E0,1.263289655E1
2.396792449E0,1.100880814E1,-5.692281246E0,-2.143363476E0,1.257735780E1
2.399198959E0,1.081727982E1,-5.845503330E0,-1.973382473E0,1.245301932E1
2.401606147E0,1.054195881E1,-5.960420132E0,-1.779460549E0,1.224034246E1
2.404012866E0,1.021396637E1,-6.058578491E0,-1.568779826E0,1.197883769E1
2.406418907E0,9.804575920E0,-6.108854294E0,-1.374857903E0,1.163348804E1
2.408825209E0,9.450249672E0,-6.125612736E0,-1.161782980E0,1.132166463E1
2.411231512E0,9.060011864E0,-6.068154812E0,-1.015743017E0,1.095162324E1
2.413638334E0,8.741595268E0,-5.936479568E0,-8.768852949E-1,1.060312243E1
2.416045001E0,8.504580498E0,-5.728192329E0,-8.122446537E-1,1.028590386E1
2.418451251E0,8.310658455E0,-5.433718204E0,-7.930918336E-1,9.960990520E0
2.420858126E0,8.174194336E0,-5.117697239E0,-8.170328140E-1,9.678627004E0
2.423264272E0,8.085613251E0,-4.782523155E0,-9.175850153E-1,9.438836349E0
2.425669845E0,8.037731171E0,-4.435379505E0,-1.042078137E0,9.239244589E0
2.428076251E0,8.025760651E0,-4.157663822E0,-1.221635461E0,9.120931733E0
2.430482970E0,8.032942772E0,-3.901495457E0,-1.475409985E0,9.051335316E0
2.432890105E0,8.085613251E0,-3.777002335E0,-1.769884109E0,9.098097495E0
2.435296668E0,8.183771133E0,-3.702785254E0,-2.167304516E0,9.240234708E0
2.437702762E0,8.286717415E0,-3.654903412E0,-2.593453884E0,9.420934535E0
2.440109637E0,8.370511055E0,-3.731514692E0,-3.101003170E0,9.675013069E0
2.442515991E0,8.401633263E0,-3.781790495E0,-3.589399338E0,9.888031575E0
2.444921876E0,8.377692223E0,-3.867978096E0,-4.092160225E0,1.009419421E1
2.447328022E0,8.274746895E0,-3.951771498E0,-4.587738514E0,1.025354957E1
2.449734428E0,8.123918533E0,-4.025988579E0,-5.064164162E0,1.038520077E1
2.452141616E0,7.910844326E0,-4.100205421E0,-5.533407688E0,1.048864830E1
2.454548387E0,7.681010723E0,-4.205545902E0,-5.930827618E0,1.057635373E1
2.456954428E0,7.441601276E0,-4.270186424E0,-6.289942741E0,1.063838810E1
2.459361355E0,7.195008755E0,-4.385103226E0,-6.591598988E0,1.069796516E1
2.461768074E0,6.946022511E0,-4.466502190E0,-6.929167271E0,1.078008486E1
2.464174428E0,6.735341549E0,-4.555084229E0,-7.214064598E0,1.086997452E1
2.466581095E0,6.536631584E0,-4.634089470E0,-7.475021839E0,1.095802396E1
2.468987709E0,6.304404259E0,-4.710700989E0,-7.714431763E0,1.102037541E1
2.471394637E0,6.108088017E0,-4.727459431E0,-7.996934891E0,1.111793954E1
2.473801355E0,5.902195454E0,-4.732247353E0,-8.274650574E0,1.121159749E1
2.476207814E0,5.672362328E0,-4.715488911E0,-8.526031494E0,1.127407393E1
2.478614689E0,5.425769806E0,-4.674789429E0,-8.815716743E0,1.135823472E1
2.481021095E0,5.145659924E0,-4.600571632E0,-9.095826149E0,1.141828046E1
2.483427605E0,4.839215755E0,-4.492837906E0,-9.366358757E0,1.146002958E1
2.485834689E0,4.525588512E0,-4.368344307E0,-9.560280800E0,1.144387838E1
2.488241512E0,4.211961746E0,-4.243851185E0,-9.739839554E0,1.142870811E1
2.490648959E0,3.852846861E0,-4.119358540E0,-9.866725922E0,1.136511435E1
2.493056095E0,3.472184896E0,-3.987683058E0,-9.948124886E0,1.126600519E1
2.495462709E0,3.165740490E0,-3.856007576E0,-1.000319004E1,1.117830570E1
2.497870105E0,2.885630846E0,-3.731514692E0,-9.991219521E0,1.104877979E1
2.500277032E0,2.641432762E0,-3.585474253E0,-9.933761597E0,1.088634062E1
2.502683334E0,2.452298880E0,-3.460981369E0,-9.837997437E0,1.071346608E1
2.505090053E0,2.397234678E0,-3.324517488E0,-9.727868080E0,1.055606783E1
2.507497032E0,2.409205198E0,-3.197630405E0,-9.593799591E0,1.039567701E1
2.509904428E0,2.502574921E0,-3.058772802E0,-9.426212311E0,1.022117659E1
2.512311355E0,2.694103003E0,-2.919914961E0,-9.289748192E0,1.010363874E1
2.514717709E0,2.885630846E0,-2.788239479E0,-9.119767189E0,9.963498299E0
2.517124741E0,2.998153448E0,-2.711628437E0,-8.901904106E0,9.776796489E0
2.519531512E0,3.079552889E0,-2.618258476E0,-8.686434746E0,9.580870109E0
2.521937866E0,3.110676050E0,-2.544041634E0,-8.492512703E0,9.395276757E0
2.524344428E0,3.086735249E0,-2.496159554E0,-8.250709534E0,9.156033793E0
2.526750574E0,3.019700527E0,-2.438701153E0,-8.037634850E0,8.925773275E0
2.529156928E0,2.911965847E0,-2.395607233E0,-7.867653847E0,8.724589169E0
2.531562970E0,2.797049284E0,-2.366878033E0,-7.697672844E0,8.525242726E0
2.533968751E0,2.710861683E0,-2.292661190E0,-7.570785522E0,8.361929193E0
2.536375209E0,2.684526443E0,-2.244779110E0,-7.513327122E0,8.288292943E0
2.538781407E0,2.830566645E0,-2.172955990E0,-7.520509720E0,8.324176338E0
2.541187241E0,3.196863651E0,-2.077192307E0,-7.640214443E0,8.538591325E0
2.543593439E0,3.730747700E0,-1.983822227E0,-7.752737045E0,8.829437169E0
2.545999689E0,4.255055428E0,-1.969457746E0,-7.788648605E0,9.091056462E0
2.548406407E0,4.748239517E0,-1.991004586E0,-7.803013325E0,9.348630633E0
2.550812709E0,5.174389839E0,-2.031704187E0,-7.810195446E0,9.586515791E0
2.553218595E0,5.495198727E0,-2.038886547E0,-7.747948647E0,9.715193031E0
2.555625574E0,5.684332848E0,-2.012551546E0,-7.673731804E0,9.759516558E0
2.558032189E0,5.729820251E0,-1.967063546E0,-7.568391800E0,9.694366072E0
2.560438439E0,5.571809769E0,-1.919181585E0,-7.424745560E0,9.479196626E0
2.562844949E0,5.255788803E0,-1.844964623E0,-7.202094078E0,9.104799257E0
2.565251459E0,4.911038876E0,-1.809053063E0,-6.984230995E0,8.727568872E0
2.567658282E0,4.539953232E0,-1.797082543E0,-6.787915230E0,8.361607153E0
2.570064532E0,4.245479107E0,-1.751594663E0,-6.579628468E0,8.023944633E0
2.572470522E0,4.092256546E0,-1.730047822E0,-6.447953224E0,7.830436124E0
2.574877345E0,4.116197586E0,-1.710894942E0,-6.364159584E0,7.769991717E0
2.577283855E0,4.310119629E0,-1.665407062E0,-6.378524303E0,7.876311585E0
2.579690053E0,4.693175793E0,-1.646254301E0,-6.486258507E0,8.173591723E0
2.582096355E0,5.171995163E0,-1.648648500E0,-6.658634186E0,8.590982776E0
2.584502657E0,5.631662369E0,-1.682165861E0,-6.866920471E0,9.038799687E0
2.586909584E0,6.060205936E0,-1.708500981E0,-7.094359398E0,9.485515635E0
2.589316251E0,6.400167942E0,-1.751594663E0,-7.364892960E0,9.913217533E0
2.591722345E0,6.665913105E0,-1.835388064E0,-7.592332840E0,1.026871778E1
2.594128647E0,6.783223629E0,-1.938334346E0,-7.822165966E0,1.053354372E1
2.596534480E0,6.768859386E0,-2.046068907E0,-8.006511688E0,1.068213859E1
2.598940262E0,6.644366264E0,-2.151409388E0,-8.154945374E0,1.073681980E1
2.601346512E0,6.385803699E0,-2.218444109E0,-8.135792732E0,1.057785926E1
2.603752762E0,6.055417538E0,-2.297449350E0,-8.063969612E0,1.034282171E1
2.606159480E0,5.701091290E0,-2.352513552E0,-7.862865448E0,9.993068345E0
2.608565939E0,5.392252445E0,-2.378848553E0,-7.577967644E0,9.600046900E0
2.610972084E0,5.128901482E0,-2.393213272E0,-7.249976158E0,9.197567856E0
2.613379012E0,4.968497276E0,-2.431518793E0,-6.989019394E0,8.913172326E0
2.615785522E0,4.939767838E0,-2.433912754E0,-6.775944710E0,8.731475493E0
2.618191407E0,4.961314678E0,-2.505735874E0,-6.651451588E0,8.668054212E0
2.620597762E0,4.927797318E0,-2.687687397E0,-6.464712143E0,8.561504134E0
2.623004272E0,4.781757355E0,-2.917520761E0,-6.297125340E0,8.427984239E0
2.625411147E0,4.544741631E0,-3.180871725E0,-6.268395424E0,8.370507906E0
2.627817553E0,4.245479107E0,-3.401128769E0,-6.368947983E0,8.375874173E0
2.630223543E0,3.922275782E0,-3.652508974E0,-6.526958466E0,8.445487311E0
2.632630262E0,3.613436937E0,-3.877554655E0,-6.797491550E0,8.619643147E0
2.635036459E0,3.424302816E0,-4.064293861E0,-7.127877235E0,8.891061143E0
2.637442241E0,3.395573854E0,-4.258215904E0,-7.556421280E0,9.314602893E0
2.639848751E0,3.522461176E0,-4.468896866E0,-8.023269653E0,9.836240535E0
2.642255262E0,3.747506380E0,-4.643665791E0,-8.451813698E0,1.034604228E1
2.644661980E0,3.982128382E0,-4.801676273E0,-8.834870338E0,1.081519188E1
2.647068334E0,4.259843826E0,-4.904623032E0,-9.272990227E0,1.132209982E1
2.649474220E0,4.595017433E0,-4.969263554E0,-9.756598473E0,1.187429910E1
2.651880887E0,4.927797318E0,-4.988415718E0,-1.026414585E1,1.243061414E1
2.654287241E0,5.234241962E0,-4.983627796E0,-1.078127193E1,1.297958626E1
2.656693230E0,5.581386089E0,-4.978839874E0,-1.131036854E1,1.355968855E1
2.659099532E0,5.883042812E0,-4.957293034E0,-1.171736431E1,1.401718850E1
2.661505991E0,6.127240658E0,-4.974051476E0,-1.204056835E1,1.439651181E1
2.663912866E0,6.297221661E0,-4.969263554E0,-1.225364304E1,1.464583042E1
2.666319376E0,6.443261623E0,-4.935745716E0,-1.236377144E1,1.478986309E1
2.668725678E0,6.500720024E0,-4.849558353E0,-1.234701252E1,1.477248440E1
2.671133074E0,6.560572624E0,-4.737035751E0,-1.221533680E1,1.465247672E1
2.673540105E0,6.550996304E0,-4.557478428E0,-1.195438004E1,1.437335605E1
2.675946407E0,6.531843662E0,-4.363556385E0,-1.154498959E1,1.396396758E1
2.678352970E0,6.438473701E0,-4.128934383E0,-1.106377506E1,1.345024763E1
2.680759689E0,6.309192181E0,-3.853613615E0,-1.048200893E1,1.282687628E1
2.683167137E0,6.134423256E0,-3.602233171E0,-9.869120598E0,1.216580346E1
2.685574064E0,5.918954372E0,-3.334094048E0,-9.244259834E0,1.147198953E1
2.687980418E0,5.672362328E0,-3.099472284E0,-8.585883141E0,1.074708389E1
2.690387501E0,5.418587685E0,-2.843303919E0,-7.963417530E0,1.004298205E1
2.692794220E0,5.195936203E0,-2.603893757E0,-7.431927681E0,9.434594044E0
2.695200262E0,4.997226238E0,-2.424336672E0,-6.977049351E0,8.917897511E0
2.697606512E0,4.858368874E0,-2.261537790E0,-6.586811066E0,8.491429874E0
2.700012709E0,4.745845795E0,-2.139438868E0,-6.304306984E0,8.175850875E0
2.702419376E0,4.707540035E0,-2.065221786E0,-6.098414421E0,7.976009821E0
2.704825678E0,4.750634193E0,-2.029310226E0,-5.964344978E0,7.890502915E0
2.707231772E0,4.822457314E0,-2.029310226E0,-5.914069176E0,7.896227501E0
2.709638751E0,4.961314678E0,-2.065221786E0,-5.947586536E0,8.015832457E0
2.712045209E0,5.126507759E0,-2.117892027E0,-6.045744419E0,8.204728760E0
2.714451355E0,5.327611446E0,-2.216049910E0,-6.143902779E0,8.428633476E0
2.716857709E0,5.526322365E0,-2.357301712E0,-6.277972221E0,8.689651630E0
2.719264220E0,5.737002850E0,-2.524888515E0,-6.419224262E0,8.971884074E0
2.721671355E0,5.947683334E0,-2.711628437E0,-6.550899506E0,9.254304412E0
2.724077814E0,6.172728539E0,-2.922309160E0,-6.708909988E0,9.573502059E0
2.726483959E0,6.426503181E0,-3.164113045E0,-6.905226231E0,9.949557970E0
2.728891147E0,6.606060505E0,-3.350852728E0,-7.041689396E0,1.022025631E1
2.731298178E0,6.785618305E0,-3.549562931E0,-7.149424076E0,1.047655847E1
2.733704949E0,6.838288307E0,-3.707573652E0,-7.202094078E0,1.060087018E1
2.736111980E0,6.876593590E0,-3.834460735E0,-7.192518234E0,1.066409617E1
2.738519012E0,6.814347267E0,-3.925436497E0,-7.168577194E0,1.064109390E1
2.740926303E0,6.701824665E0,-3.982894897E0,-7.058448792E0,1.051663468E1
2.743333022E0,6.522267342E0,-4.018805981E0,-6.912408352E0,1.031853488E1
2.745739272E0,6.325951099E0,-4.088234901E0,-6.704121590E0,1.008347997E1
2.748146095E0,6.045841217E0,-4.116963863E0,-6.447953224E0,9.750778854E0
2.750552449E0,5.631662369E0,-4.195969105E0,-6.119961739E0,9.315348058E0
2.752958491E0,5.236636162E0,-4.315674305E0,-5.820699215E0,8.940242857E0
2.755365053E0,4.834427834E0,-4.428196907E0,-5.588471413E0,8.614617406E0
2.757771564E0,4.551923752E0,-4.533537388E0,-5.557348728E0,8.494533299E0
2.760178439E0,4.472918510E0,-4.631695271E0,-5.715359211E0,8.609583729E0
2.762584741E0,4.573470592E0,-4.727459431E0,-6.024197578E0,8.919442942E0
2.764990834E0,4.870338917E0,-4.851952553E0,-6.419224262E0,9.405747438E0
2.767397918E0,5.291700363E0,-4.959686756E0,-6.924378395E0,1.002734270E1
2.769804532E0,5.813613892E0,-4.997992516E0,-7.374469757E0,1.063770839E1
2.772210730E0,6.400167942E0,-4.962080956E0,-7.841318607E0,1.127256291E1
2.774617084E0,7.068121433E0,-4.823223114E0,-8.233950615E0,1.187517429E1
2.777023230E0,7.743257523E0,-4.698730469E0,-8.456602097E0,1.239153841E1
2.779429637E0,8.387269974E0,-4.638877869E0,-8.418296814E0,1.275669263E1
2.781835991E0,8.969036102E0,-4.624512672E0,-8.135792732E0,1.296228566E1
2.784242084E0,9.438279152E0,-4.681971550E0,-7.561209202E0,1.296818629E1
2.786648907E0,9.828516960E0,-4.737035751E0,-6.835797310E0,1.287506809E1
2.789055105E0,1.014932632E1,-4.737035751E0,-6.005044937E0,1.270861508E1
2.791460887E0,1.035521889E1,-4.701124191E0,-5.116834164E0,1.247048992E1
2.793867241E0,1.047731781E1,-4.626907349E0,-4.197500229E0,1.219842073E1
2.796273647E0,1.047731781E1,-4.543113708E0,-3.270984173E0,1.187911647E1
2.798680522E0,1.041267681E1,-4.444955826E0,-2.325314999E0,1.155805176E1
2.801087032E0,1.028818321E1,-4.397073746E0,-1.523291945E0,1.129165133E1
2.803492970E0,1.015411472E1,-4.346797943E0,-8.385797143E-1,1.107717988E1
2.805899689E0,1.004877377E1,-4.318068504E0,-3.070898056E-1,1.094156634E1
2.808306199E0,9.902733803E0,-4.332432747E0,2.568993717E-2,1.080901338E1
2.810712293E0,9.818941116E0,-4.394679546E0,2.100355327E-1,1.075959701E1
2.813118543E0,9.725570679E0,-4.483261108E0,2.627057135E-1,1.071239327E1
2.815524845E0,9.620230675E0,-4.622118950E0,2.244001329E-1,1.067535373E1
2.817931876E0,9.543620110E0,-4.763370991E0,4.484273493E-2,1.066641453E1
2.820338699E0,9.483766556E0,-4.909410954E0,-2.256904393E-1,1.068152986E1
2.822745470E0,9.399973869E0,-5.076997757E0,-5.441055298E-1,1.069726441E1
2.825152918E0,9.332939148E0,-5.246978760E0,-9.439200759E-1,1.074828006E1
2.827559532E0,9.244357109E0,-5.448082924E0,-1.374857903E0,1.081803957E1
2.829965939E0,9.172533989E0,-5.634822845E0,-1.827342510E0,1.091905623E1
2.832372866E0,9.081557274E0,-5.814380169E0,-2.267856598E0,1.101929548E1
2.834779793E0,8.973823547E0,-5.986755371E0,-2.674853325E0,1.111420664E1
2.837186980E0,8.866089821E0,-6.151947975E0,-3.072273731E0,1.122019957E1
2.839593699E0,8.739201546E0,-6.312352657E0,-3.431388855E0,1.131343755E1
2.841999793E0,8.655408859E0,-6.422481537E0,-3.788109303E0,1.142427869E1
2.844406303E0,8.564433098E0,-6.482333660E0,-4.142436028E0,1.151216488E1
2.846812501E0,8.521338463E0,-6.508668900E0,-4.489580631E0,1.162464254E1
2.849218647E0,8.473456383E0,-6.508668900E0,-4.786448479E0,1.170778899E1
2.851624949E0,8.435152054E0,-6.434452057E0,-5.109652042E0,1.177550455E1
2.854031303E0,8.370511055E0,-6.324323177E0,-5.346667767E0,1.177494693E1
2.856438334E0,8.320234299E0,-6.187859535E0,-5.641141891E0,1.180416817E1
2.858844793E0,8.193347931E0,-6.025060654E0,-5.851822853E0,1.173354750E1
2.861250626E0,8.049701691E0,-5.826350689E0,-6.038562298E0,1.162791014E1
2.863657189E0,7.908450603E0,-5.584547043E0,-6.230090141E0,1.151280938E1
2.866063699E0,7.719316483E0,-5.369077682E0,-6.359371662E0,1.135149550E1
2.868470053E0,7.525394440E0,-5.134455681E0,-6.462317467E0,1.116941107E1
2.870876512E0,7.348231316E0,-4.935745716E0,-6.514987946E0,1.099104896E1
2.873282814E0,7.202191353E0,-4.737035751E0,-6.572446346E0,1.084011619E1
2.875689428E0,7.015450954E0,-4.521566868E0,-6.601175785E0,1.064127064E1
2.878095522E0,6.912505150E0,-4.267792225E0,-6.641875267E0,1.049339244E1
2.880501199E0,6.785618305E0,-4.002047539E0,-6.708909988E0,1.034748634E1
2.882907918E0,6.697036266E0,-3.714755774E0,-6.787915230E0,1.023354769E1
2.885314272E0,6.615637302E0,-3.460981369E0,-6.854949951E0,1.013584667E1
2.887720001E0,6.603666782E0,-3.233541727E0,-6.989019394E0,1.014448615E1
2.890126199E0,6.558178425E0,-3.003708363E0,-7.089571476E0,1.011404923E1
2.892532709E0,6.543814182E0,-2.816968918E0,-7.226035118E0,1.014753179E1
2.894939532E0,6.534237862E0,-2.687687397E0,-7.396016121E0,1.022843988E1
2.897345730E0,6.584513664E0,-2.613470316E0,-7.570785522E0,1.036835767E1
2.899751772E0,6.644366264E0,-2.584741116E0,-7.752737045E0,1.053249360E1
2.902158803E0,6.735341549E0,-2.565588236E0,-7.903564930E0,1.069642031E1
2.904565366E0,6.811953068E0,-2.625440836E0,-8.044816971E0,1.086345821E1
2.906971459E0,6.852652550E0,-2.714022636E0,-8.157340050E0,1.099395118E1
2.909377657E0,6.890958309E0,-2.891185760E0,-8.202827454E0,1.109642464E1
2.911783543E0,6.893352032E0,-3.058772802E0,-8.210010529E0,1.114803418E1
2.914190209E0,6.852652550E0,-3.259876966E0,-8.171704292E0,1.115178891E1
2.916596928E0,6.759282589E0,-3.472951889E0,-8.080728531E0,1.109267639E1
2.919002970E0,6.613242626E0,-3.674056053E0,-7.910747528E0,1.094593954E1
2.921409689E0,6.416926861E0,-3.870372057E0,-7.702461243E0,1.074637797E1
2.923816147E0,6.208640099E0,-4.054717541E0,-7.415169239E0,1.048678602E1
2.926222189E0,5.964442253E0,-4.162452221E0,-7.087177753E0,1.015522862E1
2.928628543E0,5.741790771E0,-4.308491707E0,-6.706515789E0,9.823879889E0
2.931035209E0,5.514351845E0,-4.404255867E0,-6.352189064E0,9.495043545E0
2.933442657E0,5.368311882E0,-4.466502190E0,-5.988286018E0,9.199346918E0
2.935849480E0,5.291700363E0,-4.526354790E0,-5.677053452E0,8.984370668E0
2.938255887E0,5.289306164E0,-4.569448948E0,-5.408914089E0,8.838154502E0
2.940663230E0,5.349158764E0,-4.569448948E0,-5.203021526E0,8.750131209E0
2.943069845E0,5.437740326E0,-4.531143188E0,-5.066557884E0,8.704612986E0
2.945476043E0,5.531110287E0,-4.478472710E0,-5.009099483E0,8.702929188E0
2.947882866E0,5.612509727E0,-4.353980064E0,-4.997128963E0,8.684970105E0
2.950289793E0,5.679543972E0,-4.253427982E0,-5.095287800E0,8.735606853E0
2.952696980E0,5.703485012E0,-4.112175941E0,-5.258086205E0,8.779931822E0
2.955103751E0,5.679543972E0,-3.935012817E0,-5.475949287E0,8.816323848E0
2.957510157E0,5.655602932E0,-3.729120255E0,-5.720147133E0,8.866355825E0
2.959917137E0,5.535898209E0,-3.573503733E0,-5.911674976E0,8.852344262E0
2.962323803E0,5.394646645E0,-3.429857969E0,-6.088838577E0,8.828368668E0
2.964730157E0,5.191148281E0,-3.279029846E0,-6.184602261E0,8.714893134E0
2.967136928E0,4.949344158E0,-3.118625164E0,-6.222908020E0,8.540867329E0
2.969543751E0,4.645293713E0,-2.984555483E0,-6.206149101E0,8.306781072E0
2.971950939E0,4.329272747E0,-2.876821280E0,-6.129538059E0,8.036786672E0
2.974357866E0,3.951004744E0,-2.771480799E0,-6.091232777E0,7.771400198E0
2.976764480E0,3.558372736E0,-2.697263718E0,-5.978709698E0,7.462051845E0
2.979171616E0,3.213622332E0,-2.658958435E0,-5.916462898E0,7.238919925E0
2.981578282E0,2.938300848E0,-2.627834797E0,-5.880551815E0,7.079549226E0
2.983984376E0,2.780290365E0,-2.623046875E0,-5.952374458E0,7.073977037E0
2.986390782E0,2.756349325E0,-2.632622957E0,-6.036168098E0,7.138871798E0
2.988797084E0,2.842537165E0,-2.632622957E0,-6.184602261E0,7.297946717E0
2.991204064E0,3.041247129E0,-2.656563997E0,-6.409647465E0,7.575625188E0
2.993610991E0,3.311780453E0,-2.666140556E0,-6.682575226E0,7.920417090E0
2.996017345E0,3.596678257E0,-2.663746357E0,-6.977049351E0,8.289201215E0
2.998424584E0,3.843270540E0,-2.666140556E0,-7.247581959E0,8.625918975E0
3.000831720E0,4.013251781E0,-2.668534517E0,-7.515721321E0,8.928232373E0
3.003238439E0,4.082680702E0,-2.635017395E0,-7.740766525E0,9.139533073E0
3.005645105E0,4.027616024E0,-2.620652676E0,-7.901171207E0,9.247595241E0
3.008051876E0,3.874393702E0,-2.615864277E0,-7.989752769E0,9.256879700E0
3.010459116E0,3.771447420E0,-2.606287956E0,-8.059181213E0,9.271836624E0
3.012865887E0,3.690047979E0,-2.541647434E0,-8.111851692E0,9.267068773E0
3.015272032E0,3.713989019E0,-2.508130074E0,-8.140581131E0,9.292657965E0
3.017678907E0,3.886364222E0,-2.479400873E0,-8.152551651E0,9.365647547E0
3.020085522E0,4.120985985E0,-2.421942234E0,-8.178886414E0,9.473252485E0
3.022491616E0,4.413066387E0,-2.364484072E0,-8.212404251E0,9.618187119E0
3.024897866E0,4.755422115E0,-2.292661190E0,-8.315350533E0,9.849639044E0
3.027304116E0,5.052290440E0,-2.244779110E0,-8.411113739E0,1.006536171E1
3.029711043E0,5.306064606E0,-2.137044668E0,-8.545184135E0,1.028306634E1
3.032117605E0,5.468863487E0,-2.046068907E0,-8.712770462E0,1.048843339E1
3.034523907E0,5.562233448E0,-1.971851707E0,-8.901904106E0,1.068038093E1
3.036930887E0,5.531110287E0,-1.890452504E0,-9.083856583E0,1.080201102E1
3.039337397E0,5.459287167E0,-1.832994103E0,-9.275383949E0,1.091771181E1
3.041743387E0,5.325217724E0,-1.813841224E0,-9.438181877E0,1.098759487E1
3.044149793E0,5.183965683E0,-1.768353343E0,-9.538735390E0,1.099945665E1
3.046556459E0,5.128901482E0,-1.811447024E0,-9.634499550E0,1.106393024E1
3.048963387E0,5.150448799E0,-1.799476743E0,-9.684775352E0,1.111575967E1
3.051369741E0,5.193542004E0,-1.854540944E0,-9.677592278E0,1.113858128E1
3.053775782E0,5.337188244E0,-1.890452504E0,-9.634499550E0,1.117510495E1
3.056182814E0,5.473651886E0,-1.957487226E0,-9.569858551E0,1.119708953E1
3.058589584E0,5.636450768E0,-1.993398666E0,-9.466912270E0,1.119668002E1
3.060995834E0,5.844737053E0,-2.065221786E0,-9.404664993E0,1.126382776E1
3.063402345E0,6.024294853E0,-2.134650469E0,-9.359177589E0,1.133327253E1
3.065808855E0,6.141605377E0,-2.228020430E0,-9.282566071E0,1.135118604E1
3.068215626E0,6.179911137E0,-2.371666431E0,-9.225108147E0,1.135423814E1
3.070621824E0,6.160758018E0,-2.481794834E0,-9.129343987E0,1.128978151E1
3.073027449E0,6.017112255E0,-2.637411356E0,-8.971333504E0,1.111964043E1
3.075434220E0,5.811219692E0,-2.793027878E0,-8.782198906E0,1.089487479E1
3.077840887E0,5.569415569E0,-2.915126801E0,-8.528425217E0,1.059482849E1
3.080246876E0,5.282123566E0,-3.006102562E0,-8.284227371E0,1.027452700E1
3.082653282E0,5.033137798E0,-3.116230965E0,-7.994541168E0,9.947666059E0
3.085060157E0,4.827245235E0,-3.207206726E0,-7.747948647E0,9.675700480E0
3.087467762E0,4.681205273E0,-3.286211967E0,-7.520509720E0,9.448329924E0
3.089874637E0,4.585441113E0,-3.389158249E0,-7.281099796E0,9.248085103E0
3.092280678E0,4.532771111E0,-3.537592649E0,-7.094359398E0,9.131840502E0
3.094687293E0,4.453765869E0,-3.712361574E0,-6.936348915E0,9.040497505E0
3.097093543E0,4.372365952E0,-3.882342577E0,-6.864526749E0,9.017310873E0
3.099499584E0,4.288573265E0,-4.090629101E0,-6.902832031E0,9.098032597E0
3.101905991E0,4.128168106E0,-4.243851185E0,-6.967472553E0,9.143178800E0
3.104312293E0,4.051557064E0,-4.406650066E0,-7.168577194E0,9.339281473E0
3.106718803E0,4.080286026E0,-4.586207390E0,-7.434322357E0,9.641119291E0
3.109125105E0,4.164079666E0,-4.729853153E0,-7.707249165E0,9.955539162E0
3.111530991E0,4.341243267E0,-4.839982033E0,-8.016087532E0,1.032131186E1
3.113937709E0,4.606987953E0,-4.942928314E0,-8.339291573E0,1.073315714E1
3.116344220E0,4.860762596E0,-5.014751434E0,-8.679253578E0,1.114020591E1
3.118750574E0,5.152842522E0,-5.026721954E0,-9.024003029E0,1.154349818E1
3.121157605E0,5.404222965E0,-4.993204117E0,-9.311295509E0,1.186751605E1
3.123564689E0,5.653209209E0,-4.940533638E0,-9.636893272E0,1.221627435E1
3.125972137E0,5.875860214E0,-4.861528873E0,-9.871514320E0,1.247425313E1
3.128379220E0,6.014718056E0,-4.768158913E0,-1.004388905E1,1.264088129E1
3.130785887E0,6.122452736E0,-4.679577351E0,-1.010374165E1,1.270702431E1
3.133193178E0,6.160758018E0,-4.571842670E0,-1.009416485E1,1.267867693E1
3.135600053E0,6.213428020E0,-4.500020027E0,-9.976855278E0,1.258548804E1
3.138006772E0,6.282856941E0,-4.342009544E0,-9.926579475E0,1.252454863E1
3.140414012E0,6.376227379E0,-4.181604862E0,-9.773356438E0,1.239599092E1
3.142821251E0,6.373833179E0,-4.045141220E0,-9.462122917E0,1.210457298E1
3.145228855E0,6.409744740E0,-3.906283617E0,-9.105402946E0,1.180051872E1
3.147636043E0,6.450444221E0,-3.745879173E0,-8.696012497E0,1.145689639E1
3.150042553E0,6.443261623E0,-3.566321611E0,-8.281832695E0,1.108255489E1
3.152449845E0,6.369044781E0,-3.348458529E0,-7.891594410E0,1.067961461E1
3.154857084E0,6.213428020E0,-3.137778044E0,-7.484598160E0,1.022113244E1
3.157264012E0,5.993171215E0,-2.943856001E0,-7.046478271E0,9.707587002E0
3.159670782E0,5.756155491E0,-2.781057358E0,-6.653845787E0,9.227202708E0
3.162077189E0,5.483228207E0,-2.666140556E0,-6.299519062E0,8.766871588E0
3.164483907E0,5.162419319E0,-2.579952955E0,-5.952374458E0,8.290807691E0
3.166890574E0,4.894279957E0,-2.544041634E0,-5.684235573E0,7.920647586E0
3.169296668E0,4.662052155E0,-2.503341913E0,-5.497496128E0,7.630459665E0
3.171703439E0,4.506436348E0,-2.493765354E0,-5.396943569E0,7.460149736E0
3.174109949E0,4.413066387E0,-2.522494555E0,-5.420884609E0,7.431293539E0
3.176516043E0,4.420248032E0,-2.577558756E0,-5.550166130E0,7.548956608E0
3.178922605E0,4.496859550E0,-2.658958435E0,-5.815911293E0,7.817712578E0
3.181329272E0,4.693175793E0,-2.737963676E0,-6.151084900E0,8.207203516E0
3.183736303E0,4.894279957E0,-2.838515520E0,-6.531746387E0,8.641461539E0
3.186142918E0,5.112142563E0,-2.939067841E0,-6.969866753E0,9.129685860E0
3.188549480E0,5.296488762E0,-3.070743322E0,-7.362499237E0,9.575419196E0
3.190956772E0,5.466469765E0,-3.156930923E0,-7.805407047E0,1.003856980E1
3.193363387E0,5.569415569E0,-3.279029846E0,-8.176492691E0,1.042235382E1
3.195769689E0,5.638844490E0,-3.362823248E0,-8.490118980E0,1.073253314E1
3.198176095E0,5.641238689E0,-3.441828489E0,-8.734316826E0,1.095253613E1
3.200582397E0,5.617297649E0,-3.532804251E0,-8.918663025E0,1.111653223E1
3.202989324E0,5.545474529E0,-3.604627371E0,-9.019215584E0,1.118444795E1
3.205395730E0,5.499986649E0,-3.676450014E0,-9.038368225E0,1.120081417E1
3.207801668E0,5.478440285E0,-3.757849693E0,-9.067096710E0,1.124041748E1
3.210208543E0,5.447316647E0,-3.841643095E0,-9.059915543E0,1.124782423E1
3.212614897E0,5.435346127E0,-3.903889656E0,-9.033579826E0,1.124228208E1
3.215020626E0,5.447316647E0,-3.985288858E0,-9.059915543E0,1.129769249E1
3.217426772E0,5.485621929E0,-4.054717541E0,-9.081461906E0,1.135806905E1
3.219832970E0,5.502381325E0,-4.124146461E0,-9.117373466E0,1.141977597E1
3.222239532E0,5.528716087E0,-4.188786983E0,-9.165255547E0,1.149410924E1
3.224645574E0,5.562233448E0,-4.241457462E0,-9.210742950E0,1.156573335E1
3.227051355E0,5.629268169E0,-4.327644825E0,-9.251442909E0,1.166217672E1
3.229458282E0,5.701091290E0,-4.413832188E0,-9.325659752E0,1.178780244E1
3.231865001E0,5.760943890E0,-4.511990547E0,-9.332841873E0,1.185953079E1
3.234270991E0,5.880648613E0,-4.598177910E0,-9.294536591E0,1.192114418E1
3.236677137E0,6.053023815E0,-4.698730469E0,-9.208349228E0,1.197960186E1
3.239083282E0,6.237369061E0,-4.818434715E0,-9.088644028E0,1.203019269E1
3.241489741E0,6.440867424E0,-4.844770432E0,-8.952179909E0,1.204566722E1
3.243896355E0,6.716189384E0,-4.835193634E0,-8.808533669E0,1.208621375E1
3.246302709E0,7.034604073E0,-4.792099953E0,-8.638552666E0,1.212742630E1
3.248709480E0,7.422448158E0,-4.710700989E0,-8.490118980E0,1.222152040E1
3.251115939E0,7.760015965E0,-4.643665791E0,-8.233950615E0,1.223026666E1
3.253521824E0,8.157436371E0,-4.610148430E0,-7.877230167E0,1.224124143E1
3.255928126E0,8.533309937E0,-4.588601112E0,-7.484598160E0,1.224303264E1
3.258334584E0,8.890030861E0,-4.574236870E0,-7.034507751E0,1.222458960E1
3.260741616E0,9.246750832E0,-4.533537388E0,-6.498229027E0,1.217712374E1
3.263148387E0,9.584319115E0,-4.461714268E0,-5.899704456E0,1.210671631E1
3.265554741E0,9.885975838E0,-4.373132706E0,-5.207809925E0,1.199908714E1
3.267961928E0,1.018523788E1,-4.270186424E0,-4.487185955E0,1.192092281E1
3.270368334E0,1.044619465E1,-4.222304344E0,-3.687557220E0,1.185533276E1
3.272774220E0,1.064251041E1,-4.188786983E0,-2.868775368E0,1.179147304E1
3.275180574E0,1.081727982E1,-4.188786983E0,-2.073934555E0,1.178391631E1
3.277586980E0,1.095134926E1,-4.210334301E0,-1.286276102E0,1.180311280E1
3.279993803E0,1.102077770E1,-4.227092743E0,-5.848052502E-1,1.181811539E1
3.282400157E0,1.100162601E1,-4.332432747E0,1.850763708E-2,1.182396258E1
3.284806095E0,1.094416714E1,-4.418620110E0,5.404211879E-1,1.181486577E1
3.287212657E0,1.084840298E1,-4.531143188E0,9.593884945E-1,1.179574211E1
3.289618803E0,1.072151566E1,-4.641272068E0,1.287379980E0,1.175370799E1
3.292024584E0,1.061856937E1,-4.751400471E0,1.459755182E0,1.172436383E1
3.294431147E0,1.056350613E1,-4.835193634E0,1.543548465E0,1.171961181E1
3.296837814E0,1.055153465E1,-4.916593552E0,1.519607544E0,1.173954781E1
3.299244584E0,1.057308197E1,-4.978839874E0,1.402296782E0,1.177052867E1
3.301650834E0,1.057786942E1,-5.000386238E0,1.196404219E0,1.176123152E1
3.304056772E0,1.057547569E1,-5.009963036E0,8.947477937E-1,1.173631072E1
3.306463699E0,1.052041149E1,-5.005174637E0,5.859090686E-1,1.166508125E1
3.308870730E0,1.043182945E1,-4.976445198E0,2.220060229E-1,1.156016259E1
3.311277397E0,1.029536629E1,-4.986021996E0,-1.371087730E-1,1.144000792E1
3.313684168E0,1.013735580E1,-5.019539356E0,-5.153763890E-1,1.132375251E1
3.316090887E0,1.000089169E1,-5.060238838E0,-8.649148345E-1,1.124152700E1
3.318498126E0,9.821334839E0,-5.122485638E0,-1.245576501E0,1.114674562E1
3.320904845E0,9.622624397E0,-5.191914558E0,-1.607085347E0,1.105140717E1
3.323310939E0,9.402367592E0,-5.223037720E0,-1.982958913E0,1.093694498E1
3.325717709E0,9.146198273E0,-5.225431919E0,-2.385167599E0,1.080032898E1
3.328124272E0,8.827783585E0,-5.208673477E0,-2.758646965E0,1.061462084E1
3.330530730E0,8.511762619E0,-5.196702957E0,-3.079456329E0,1.043737878E1
3.332937449E0,8.195741653E0,-5.148820877E0,-3.393083096E0,1.025639072E1
3.335344064E0,7.891691685E0,-5.103332996E0,-3.756986141E0,1.012115360E1
3.337750991E0,7.573276043E0,-5.050662994E0,-4.010760307E0,9.947356681E0
3.340157501E0,7.264437675E0,-5.012356758E0,-4.264534950E0,9.802144324E0
3.342563751E0,6.965175152E0,-4.940533638E0,-4.472821712E0,9.639951846E0
3.344970626E0,6.675488949E0,-4.839982033E0,-4.690684795E0,9.486311329E0
3.347376980E0,6.460020542E0,-4.720276833E0,-4.913336277E0,9.389022960E0
3.349783074E0,6.256522179E0,-4.586207390E0,-5.128804684E0,9.299570177E0
3.352189689E0,6.108088017E0,-4.406650066E0,-5.337091446E0,9.231026440E0
3.354596251E0,5.957259655E0,-4.231880665E0,-5.605230808E0,9.209580282E0
3.357003126E0,5.861495495E0,-4.071476460E0,-5.873369694E0,9.242863277E0
3.359409637E0,5.770520210E0,-3.920648336E0,-6.215725422E0,9.343748145E0
3.361815939E0,5.725032330E0,-3.812913895E0,-6.584416389E0,9.522019047E0
3.364222918E0,5.672362328E0,-3.736302614E0,-7.022537231E0,9.769937603E0
3.366629324E0,5.681938171E0,-3.686026573E0,-7.489386082E0,1.009762928E1
3.369035522E0,5.686726570E0,-3.695603132E0,-7.980176449E0,1.047280086E1
3.371442032E0,5.684332848E0,-3.741090775E0,-8.442237854E0,1.084337494E1
3.373848439E0,5.626873970E0,-3.803337336E0,-8.904297829E0,1.119882161E1
3.376255314E0,5.567021847E0,-3.853613615E0,-9.332841873E0,1.153013476E1
3.378661772E0,5.404222965E0,-3.906283617E0,-9.672803879E0,1.174852384E1
3.381067709E0,5.181571484E0,-3.966135979E0,-9.909820557E0,1.186522065E1
3.383474689E0,4.937373638E0,-3.987683058E0,-1.004388905E1,1.188103454E1
3.385881355E0,4.702752113E0,-4.004441738E0,-1.012289524E1,1.185851758E1
3.388287657E0,4.446583748E0,-4.014018059E0,-1.012289524E1,1.176254463E1
3.390694428E0,4.214355469E0,-4.033170700E0,-1.004388905E1,1.161494576E1
3.393101147E0,4.003674984E0,-4.049929619E0,-9.914608002E0,1.143375682E1
3.395508334E0,3.771447420E0,-4.054717541E0,-9.735051155E0,1.119981120E1
3.397915053E0,3.630195379E0,-4.037959099E0,-9.562676430E0,1.099673646E1
3.400321512E0,3.467396975E0,-3.999653578E0,-9.390299797E0,1.077950837E1
3.402728803E0,3.345297575E0,-3.935012817E0,-9.239472389E0,1.058504567E1
3.405135626E0,3.299809933E0,-3.827278376E0,-9.124555588E0,1.043045157E1
3.407542189E0,3.268686771E0,-3.721938133E0,-9.067096710E0,1.033195913E1
3.409949064E0,3.364450693E0,-3.607021332E0,-9.033579826E0,1.029250678E1
3.412355782E0,3.546402216E0,-3.434646368E0,-8.978514671E0,1.024634032E1
3.414763178E0,3.781023741E0,-3.267059326E0,-8.954574585E0,1.025447332E1
3.417170209E0,3.953398943E0,-3.089895964E0,-8.897115707E0,1.021447444E1
3.419576668E0,4.049163342E0,-2.924703121E0,-8.803746223E0,1.012203338E1
3.421983907E0,4.101833344E0,-2.769086838E0,-8.707982063E0,1.001607859E1
3.424390782E0,4.099439144E0,-2.577558756E0,-8.542789459E0,9.819799498E0
3.426797345E0,4.041980743E0,-2.369272232E0,-8.370414734E0,9.592439839E0
3.429204480E0,3.979733706E0,-2.204079628E0,-8.212404251E0,9.388281576E0
3.431611303E0,3.874393702E0,-2.038886547E0,-8.059181213E0,9.171607642E0
3.434018334E0,3.812146902E0,-1.864117384E0,-7.831742287E0,8.907501606E0
3.436425209E0,3.824117422E0,-1.739624262E0,-7.582756042E0,8.668815134E0
3.438831720E0,3.912698984E0,-1.663012981E0,-7.348134041E0,8.489399237E0
3.441238751E0,4.080286026E0,-1.641466022E0,-7.056054115E0,8.314508069E0
3.443645262E0,4.221538067E0,-1.651042581E0,-6.720880508E0,8.106636791E0
3.446051564E0,4.389125347E0,-1.679771662E0,-6.445559025E0,7.976922044E0
3.448458074E0,4.484889030E0,-1.725259542E0,-6.165449619E0,7.816873999E0
3.450864480E0,4.554317474E0,-1.734835982E0,-5.952374458E0,7.692998455E0
3.453271459E0,4.549529552E0,-1.765959263E0,-5.782393456E0,7.566564963E0
3.455678022E0,4.501647472E0,-1.785112023E0,-5.705782413E0,7.483809715E0
3.458084168E0,4.389125347E0,-1.818629503E0,-5.662688732E0,7.391743925E0
3.460490991E0,4.214355469E0,-1.871299624E0,-5.684235573E0,7.319363931E0
3.462897293E0,4.003674984E0,-1.947910786E0,-5.779999733E0,7.296037741E0
3.465303022E0,3.788206100E0,-2.034098387E0,-5.923645496E0,7.319674697E0
3.467709220E0,3.524855137E0,-2.141832829E0,-6.076868057E0,7.344411276E0
3.470115782E0,3.309386492E0,-2.266326189E0,-6.311489582E0,7.478179865E0
3.472522814E0,3.127434969E0,-2.342936993E0,-6.560475826E0,7.636101512E0
3.474929116E0,3.046035528E0,-2.366878033E0,-6.876497269E0,7.884583613E0
3.477335053E0,3.091523409E0,-2.414760113E0,-7.214064598E0,8.211657044E0
3.479741876E0,3.311780453E0,-2.378848553E0,-7.652184486E0,8.670797980E0
3.482148178E0,3.725959301E0,-2.359695911E0,-8.111851692E0,9.233259196E0
3.484554116E0,4.216750145E0,-2.345331430E0,-8.552366257E0,9.819599274E0
3.486960418E0,4.736268997E0,-2.342936993E0,-8.930633545E0,1.037679205E1
3.489366616E0,5.227059841E0,-2.350119591E0,-9.246655464E0,1.087868806E1
3.491773387E0,5.669967651E0,-2.345331430E0,-9.589011192E0,1.138412264E1
3.494179741E0,6.074570656E0,-2.290266991E0,-9.893060684E0,1.183293629E1
3.496585730E0,6.366650581E0,-2.223232269E0,-1.015880585E1,1.219337269E1
3.498992501E0,6.553390026E0,-2.146620989E0,-1.036709309E1,1.245116547E1
3.501398751E0,6.591696262E0,-2.055645227E0,-1.049637413E1,1.256383726E1
3.503804741E0,6.488749504E0,-2.019733667E0,-1.052989101E1,1.253242989E1
3.506211199E0,6.294827461E0,-1.998186827E0,-1.047722149E1,1.238506251E1
3.508617709E0,6.000353813E0,-1.991004586E0,-1.031442356E1,1.209775510E1
3.511024637E0,5.667573452E0,-2.014945745E0,-1.005825424E1,1.171963624E1
3.513430939E0,5.291700363E0,-2.031704187E0,-9.675198555E0,1.121335729E1
3.515836668E0,4.939767838E0,-2.031704187E0,-9.229896545E0,1.066396354E1
3.518243230E0,4.650081635E0,-2.053251028E0,-8.794170380E0,1.015758493E1
3.520649584E0,4.389125347E0,-2.048463106E0,-8.372808456E0,9.672876711E0
3.523055730E0,4.214355469E0,-2.070009947E0,-8.044816971E0,9.314763190E0
3.525462345E0,4.142532825E0,-2.089162588E0,-7.771889687E0,9.051378228E0
3.527868803E0,4.132956505E0,-2.113103628E0,-7.640214443E0,8.939765833E0
3.530275730E0,4.235902786E0,-2.184926510E0,-7.621061802E0,8.988735131E0
3.532682241E0,4.420248032E0,-2.230414629E0,-7.752737045E0,9.198819151E0
3.535088074E0,4.678811073E0,-2.369272232E0,-8.006511688E0,9.571256625E0
3.537494897E0,4.944556236E0,-2.553617716E0,-8.298591614E0,9.991807774E0
3.539901564E0,5.107354641E0,-2.783451319E0,-8.569125175E0,1.035676489E1
3.542307657E0,5.205512524E0,-3.006102562E0,-8.820505142E0,1.067404910E1
3.544714220E0,5.145659924E0,-3.240724325E0,-8.995274544E0,1.085794982E1
3.547120939E0,4.944556236E0,-3.425069809E0,-9.114978790E0,1.092074072E1
3.549527709E0,4.633323193E0,-3.590262651E0,-9.153285027E0,1.086923624E1
3.551934064E0,4.245479107E0,-3.702785254E0,-9.124555588E0,1.072344283E1
3.554340262E0,3.881575823E0,-3.808125496E0,-9.040761948E0,1.055006290E1
3.556747137E0,3.594284058E0,-3.935012817E0,-8.928238869E0,1.039791580E1
3.559153230E0,3.536825657E0,-4.042747021E0,-8.882752419E0,1.038056982E1
3.561559168E0,3.599072218E0,-4.148087502E0,-8.858811378E0,1.042297893E1
3.563965626E0,3.709200621E0,-4.258215904E0,-8.842052460E0,1.049154248E1
3.566372084E0,3.838482141E0,-4.356373787E0,-8.820505142E0,1.055998337E1
3.568779012E0,4.041980743E0,-4.401861668E0,-8.937815666E0,1.075167630E1
3.571185314E0,4.288573265E0,-4.430590630E0,-9.081461906E0,1.097701892E1
3.573591564E0,4.511224270E0,-4.423408985E0,-9.179619789E0,1.114374762E1
3.575998595E0,4.705146313E0,-4.373132706E0,-9.323266029E0,1.132192479E1
3.578404897E0,4.841609478E0,-4.334827423E0,-9.359177589E0,1.139412639E1
3.580810730E0,4.911038876E0,-4.265398502E0,-9.323266029E0,1.136816681E1
3.583217032E0,4.908644676E0,-4.169634342E0,-9.172436714E0,1.120777580E1
3.585623595E0,4.848792076E0,-4.049929619E0,-8.964151382E0,1.096670983E1
3.588030262E0,4.760210037E0,-3.899101257E0,-8.763047218E0,1.070764151E1
3.590436199E0,4.678811073E0,-3.705179214E0,-8.499695778E0,1.038578136E1
3.592842137E0,4.633323193E0,-3.506469011E0,-8.279438972E0,1.011494530E1
3.595249272E0,4.609382153E0,-3.341276407E0,-8.102275848E0,9.902393942E0
3.597656043E0,4.597411633E0,-3.197630405E0,-7.977782249E0,9.747104367E0
3.600062189E0,4.659657955E0,-3.092290163E0,-7.882018089E0,9.664413064E0
3.602468334E0,4.793727875E0,-2.996526003E0,-7.831742287E0,9.658943124E0
3.604874637E0,4.946949959E0,-2.946249962E0,-7.822165966E0,9.712825703E0
3.607281459E0,5.138478279E0,-2.915126801E0,-7.858077049E0,9.831139212E0
3.609687918E0,5.344370842E0,-2.924703121E0,-7.893988609E0,9.971521660E0
3.612093959E0,5.550262928E0,-2.915126801E0,-7.949053288E0,1.012377553E1
3.614500782E0,5.717849731E0,-2.951038361E0,-7.951447010E0,1.022878011E1
3.616907241E0,5.823190212E0,-3.010890722E0,-7.965811729E0,1.031645112E1
3.619313230E0,5.904589653E0,-3.068349123E0,-7.917929649E0,1.034275376E1
3.621719428E0,5.935712814E0,-3.149748564E0,-7.872442245E0,1.035031157E1
3.624125522E0,5.885436535E0,-3.209600925E0,-7.745554447E0,1.024370612E1
3.626532241E0,5.823190212E0,-3.274241686E0,-7.613879204E0,1.012923291E1
3.628938647E0,5.722638130E0,-3.360429049E0,-7.475021839E0,9.995850242E0
3.631344532E0,5.578992367E0,-3.449010849E0,-7.379257679E0,9.872906135E0
3.633751251E0,5.413799286E0,-3.532804251E0,-7.266735077E0,9.726014973E0
3.636157709E0,5.224665642E0,-3.623780012E0,-7.175759315E0,9.587514506E0
3.638563855E0,5.013984680E0,-3.700391054E0,-7.135059834E0,9.473226227E0
3.640970314E0,4.839215755E0,-3.772214174E0,-7.123089314E0,9.401383423E0
3.643376564E0,4.674022675E0,-3.805731535E0,-7.187729836E0,9.380487230E0
3.645783230E0,4.501647472E0,-3.865584135E0,-7.218852997E0,9.344485500E0
3.648189741E0,4.360395432E0,-3.925436497E0,-7.285887718E0,9.354478064E0
3.650595939E0,4.267025948E0,-3.961347818E0,-7.348134041E0,9.375225910E0
3.653002657E0,4.214355469E0,-4.049929619E0,-7.501356602E0,9.509630529E0
3.655408855E0,4.221538067E0,-4.150481701E0,-7.647396564E0,9.671119698E0
3.657814741E0,4.288573265E0,-4.260609627E0,-7.803013325E0,9.870748299E0
3.660221043E0,4.377154827E0,-4.385103226E0,-7.980176449E0,1.010306047E1
3.662627189E0,4.482495308E0,-4.523961067E0,-8.159733772E0,1.035085712E1
3.665033855E0,4.590229034E0,-4.670001030E0,-8.348867416E0,1.061049949E1
3.667440262E0,4.717116833E0,-4.799282551E0,-8.549972534E0,1.088054845E1
3.669846199E0,4.815274715E0,-4.935745716E0,-8.715165138E0,1.111317055E1
3.672252970E0,4.896674156E0,-5.067421436E0,-8.865993500E0,1.132528227E1
3.674659428E0,4.985255718E0,-5.151214600E0,-9.004851341E0,1.150978428E1
3.677065105E0,5.071443081E0,-5.227825642E0,-9.076673508E0,1.163768438E1
3.679471147E0,5.174389839E0,-5.309225559E0,-9.059915543E0,1.170659028E1
3.681877501E0,5.253394604E0,-5.299648762E0,-9.004851341E0,1.169494675E1
3.684284428E0,5.397040844E0,-5.266131401E0,-8.875569344E0,1.164628357E1
3.686691043E0,5.547868729E0,-5.115303516E0,-8.722347260E0,1.153362559E1
3.689097189E0,5.775308132E0,-4.983627796E0,-8.470966339E0,1.139947370E1
3.691503855E0,6.033871174E0,-4.883075714E0,-8.116640091E0,1.123084485E1
3.693910053E0,6.306797981E0,-4.796888351E0,-7.719219685E0,1.106219649E1
3.696315887E0,6.610848427E0,-4.751400471E0,-7.285887718E0,1.092535048E1
3.698722032E0,6.905322552E0,-4.727459431E0,-6.819038391E0,1.079498202E1
3.701128230E0,7.171067715E0,-4.674789429E0,-6.304306984E0,1.063118784E1
3.703534741E0,7.386536598E0,-4.653242111E0,-5.746481895E0,1.045158549E1
3.705940887E0,7.578064442E0,-4.624512672E0,-5.140775204E0,1.025869133E1
3.708346720E0,7.745651722E0,-4.598177910E0,-4.580555916E0,1.010543681E1
3.710753595E0,7.853386402E0,-4.605360508E0,-4.027519226E0,9.955196357E0
3.713160001E0,7.982667446E0,-4.650848389E0,-3.546305656E0,9.895941294E0
3.715565730E0,8.071249008E0,-4.751400471E0,-3.105791092E0,9.867461948E0
3.717972189E0,8.162223816E0,-4.875893116E0,-2.737100124E0,9.893833857E0
3.720378855E0,8.257987976E0,-5.072209358E0,-2.476143360E0,1.000264761E1
3.722785574E0,8.329811096E0,-5.246978760E0,-2.342073917E0,1.011937988E1
3.725191668E0,8.408816338E0,-5.455265522E0,-2.263068676E0,1.027567973E1
3.727597657E0,8.449515343E0,-5.630034447E0,-2.284615040E0,1.040726012E1
3.730004428E0,8.483034134E0,-5.831138611E0,-2.375590801E0,1.056444401E1
3.732410730E0,8.473456383E0,-5.991543293E0,-2.492901802E0,1.067298522E1
3.734816720E0,8.485427856E0,-6.128006935E0,-2.682035923E0,1.080501141E1
3.737223334E0,8.473456383E0,-6.252500534E0,-2.899898529E0,1.092257467E1
3.739629949E0,8.442333221E0,-6.317141056E0,-3.163249493E0,1.100842444E1
3.742036720E0,8.444727898E0,-6.353052139E0,-3.443359375E0,1.111446915E1
3.744443230E0,8.451910019E0,-6.341081619E0,-3.745015621E0,1.121022931E1
3.746849741E0,8.418393135E0,-6.302776337E0,-4.025125027E0,1.126037140E1
3.749256980E0,8.430363655E0,-6.226165295E0,-4.259747028E0,1.131289576E1
3.751663647E0,8.439939499E0,-6.125612736E0,-4.432122231E0,1.133134668E1
3.754069949E0,8.411211014E0,-5.977179050E0,-4.568585396E0,1.128481779E1
3.756476616E0,8.456698418E0,-5.790439129E0,-4.669137478E0,1.126258311E1
3.758883334E0,8.475851059E0,-5.574970245E0,-4.693078518E0,1.117789472E1
3.761290262E0,8.526127815E0,-5.342742920E0,-4.678714275E0,1.109640143E1
3.763696720E0,8.545279503E0,-5.091362476E0,-4.618861675E0,1.096711707E1
3.766102762E0,8.607526779E0,-4.851952553E0,-4.549433231E0,1.087788139E1
3.768509637E0,8.633861542E0,-4.567054749E0,-4.456063271E0,1.073583039E1
3.770916147E0,8.664984703E0,-4.303703785E0,-4.391422749E0,1.062489623E1
3.773322293E0,8.710473061E0,-4.040352821E0,-4.300446510E0,1.052096156E1
3.775728803E0,8.712866783E0,-3.793761015E0,-4.257352829E0,1.041305543E1
3.778135262E0,8.729625702E0,-3.583080292E0,-4.283688068E0,1.036314686E1
3.780542032E0,8.722443581E0,-3.417887688E0,-4.329175472E0,1.032011330E1
3.782948387E0,8.753566742E0,-3.324517488E0,-4.427333832E0,1.035753987E1
3.785354480E0,8.727231979E0,-3.298182487E0,-4.570979595E0,1.038924637E1
3.787761564E0,8.760748863E0,-3.334094048E0,-4.724202156E0,1.049690382E1
3.790168387E0,8.794266701E0,-3.470557690E0,-4.927700520E0,1.066143189E1
3.792574689E0,8.822996140E0,-3.618991852E0,-5.188657284E0,1.085654306E1
3.794981199E0,8.846936226E0,-3.844037056E0,-5.444825649E0,1.107659821E1
3.797387762E0,8.839754105E0,-4.104993820E0,-5.700994492E0,1.129130484E1
3.799794741E0,8.806236267E0,-4.344403267E0,-5.902098656E0,1.145680608E1
3.802200939E0,8.746384621E0,-4.614936829E0,-6.081655979E0,1.160962641E1
3.804606772E0,8.638649940E0,-4.861528873E0,-6.242060661E0,1.171426724E1
3.807013491E0,8.418393135E0,-5.098544598E0,-6.266001701E0,1.166735948E1
3.809419793E0,8.157436371E0,-5.290072441E0,-6.179814339E0,1.152036197E1
3.811825887E0,7.788744926E0,-5.460053444E0,-6.043350697E0,1.126937526E1
3.814232189E0,7.367383957E0,-5.534270287E0,-5.806334496E0,1.089128157E1
3.816638647E0,6.876593590E0,-5.512723923E0,-5.540589809E0,1.041036982E1
3.819045470E0,6.412138462E0,-5.421747684E0,-5.241327763E0,9.898605171E0
3.821451928E0,5.995564938E0,-5.211067200E0,-4.999523640E0,9.386013899E0
3.823858282E0,5.614903450E0,-4.957293034E0,-4.738566399E0,8.863176997E0
3.826265470E0,5.277335644E0,-4.665212631E0,-4.499156475E0,8.358043394E0
3.828672293E0,4.985255718E0,-4.385103226E0,-4.333964348E0,7.928754747E0
3.831078803E0,4.781757355E0,-4.119358540E0,-4.223835468E0,7.594412699E0
3.833485626E0,4.642899513E0,-3.915860176E0,-4.242988586E0,7.409009985E0
3.835892501E0,4.568682671E0,-3.731514692E0,-4.362693310E0,7.336903717E0
3.838299637E0,4.568682671E0,-3.602233171E0,-4.570979595E0,7.398837721E0
3.840706043E0,4.571076870E0,-3.559139252E0,-4.827147961E0,7.540793950E0
3.843112137E0,4.587835312E0,-3.547168732E0,-5.114439964E0,7.732278772E0
3.845518751E0,4.590229034E0,-3.587868690E0,-5.452008247E0,7.979185313E0
3.847925105E0,4.583047390E0,-3.618991852E0,-5.794363976E0,8.226547227E0
3.850331303E0,4.544741631E0,-3.671662092E0,-6.148690701E0,8.481873398E0
3.852737605E0,4.504041672E0,-3.721938133E0,-6.450346947E0,8.703228745E0
3.855143855E0,4.415460110E0,-3.755455256E0,-6.747215748E0,8.895203905E0
3.857550522E0,4.369972229E0,-3.781790495E0,-7.010566711E0,9.085518271E0
3.859956928E0,4.338849068E0,-3.803337336E0,-7.173365116E0,9.205876015E0
3.862363074E0,4.358001709E0,-3.774608374E0,-7.295464039E0,9.298582839E0
3.864769897E0,4.429824829E0,-3.796154976E0,-7.427139759E0,9.444392284E0
3.867176459E0,4.566287994E0,-3.786578894E0,-7.508539200E0,9.569081810E0
3.869582657E0,4.788939476E0,-3.798549414E0,-7.642608643E0,9.786336690E0
3.871988959E0,5.064260960E0,-3.772214174E0,-7.755131245E0,1.000091993E1
3.874395418E0,5.332400322E0,-3.750667334E0,-7.905959129E0,1.024725272E1
3.876802553E0,5.574203968E0,-3.707573652E0,-8.071151733E0,1.048624540E1
3.879209480E0,5.727426052E0,-3.623780012E0,-8.233950615E0,1.066457376E1
3.881616095E0,5.844737053E0,-3.537592649E0,-8.384778976E0,1.081573074E1
3.884023334E0,5.763337612E0,-3.389158249E0,-8.516453743E0,1.082739297E1
3.886430209E0,5.614903450E0,-3.240724325E0,-8.631371498E0,1.079490662E1
3.888836720E0,5.310853004E0,-3.082713604E0,-8.703193665E0,1.065147233E1
3.891243543E0,4.966102600E0,-2.903156281E0,-8.758257866E0,1.047843367E1
3.893650366E0,4.547135830E0,-2.754722118E0,-8.734316826E0,1.022512732E1
3.896057814E0,4.101833344E0,-2.644593477E0,-8.717558861E0,9.990732902E0
3.898464584E0,3.654136419E0,-2.558406115E0,-8.628976822E0,9.713773510E0
3.900870678E0,3.259110212E0,-2.472218513E0,-8.554759979E0,9.482488179E0
3.903277553E0,2.974212408E0,-2.412366152E0,-8.549972534E0,9.368429977E0
3.905684012E0,2.732408524E0,-2.364484072E0,-8.533212662E0,9.266744822E0
3.908090105E0,2.576792240E0,-2.307025671E0,-8.597853661E0,9.267432938E0
3.910496720E0,2.483422279E0,-2.283084869E0,-8.705588341E0,9.336333922E0
3.912903647E0,2.509757519E0,-2.254355669E0,-8.863598824E0,9.483901433E0
3.915310782E0,2.579186201E0,-2.228020430E0,-9.067096710E0,9.686512233E0
3.917717189E0,2.730014324E0,-2.259143829E0,-9.308900833E0,9.960539331E0
3.920123334E0,2.950271368E0,-2.254355669E0,-9.531552315E0,1.022920868E1
3.922530314E0,3.244745731E0,-2.285478830E0,-9.749415398E0,1.052629512E1
3.924936772E0,3.529643536E0,-2.307025671E0,-9.969672203E0,1.082474548E1
3.927343230E0,3.718777180E0,-2.340543032E0,-1.010374165E1,1.101785100E1
3.929750157E0,3.771447420E0,-2.342936993E0,-1.011571217E1,1.104720788E1
3.932156876E0,3.663712978E0,-2.357301712E0,-1.007740688E1,1.097878835E1
3.934564064E0,3.479367495E0,-2.352513552E0,-9.974461555E0,1.082267072E1
3.936970887E0,3.299809933E0,-2.350119591E0,-9.821238518E0,1.062396036E1
3.939377293E0,3.026882648E0,-2.328572512E0,-9.670410156E0,1.039716794E1
3.941784532E0,2.792260885E0,-2.321390390E0,-9.481276512E0,1.015284091E1
3.944191512E0,2.595944881E0,-2.302237511E0,-9.340023994E0,9.963697888E0
3.946598334E0,2.567215681E0,-2.268720150E0,-9.249049187E0,9.863194124E0
3.949005574E0,2.703679323E0,-2.216049910E0,-9.246655464E0,9.885413312E0
3.951412970E0,3.000547647E0,-2.146620989E0,-9.308900833E0,1.001333624E1
3.953820626E0,3.419514894E0,-2.046068907E0,-9.416636467E0,1.022509278E1
3.956227657E0,3.912698984E0,-1.919181585E0,-9.605769157E0,1.054814071E1
3.958634428E0,4.465736389E0,-1.809053063E0,-9.814056396E0,1.093303148E1
3.961042032E0,5.035531521E0,-1.684559941E0,-1.005825424E1,1.137377678E1
3.963449012E0,5.626873970E0,-1.560066819E0,-1.029766369E1,1.183796421E1
