"Time (s)","Acceleration x (m/s^2)","Acceleration y (m/s^2)","Acceleration z (m/s^2)","Absolute acceleration (m/s^2)"
0.000000000E0,5.299361706E0,-2.815261841E0,-7.218692303E0,9.387142924E0
0.000000000E0,5.382246971E0,-2.687450171E0,-7.613574028E0,9.703477745E0
0.000000000E0,5.531357288E0,-2.585484028E0,-8.189788818E0,1.021534542E1
0.000000000E0,5.425501347E0,-2.554428339E0,-8.588182449E0,1.047463827E1
0.000000000E0,5.266043663E0,-2.424214363E0,-8.484321594E0,1.027578435E1
0.000000000E0,5.358662128E0,-2.252578497E0,-8.409478188E0,1.022294933E1
0.000000000E0,5.615235806E0,-2.132755041E0,-8.452312469E0,1.036923832E1
0.000000000E0,5.613866806E0,-2.141602516E0,-8.462491035E0,1.037861823E1
0.000000000E0,5.535898209E0,-2.170562029E0,-8.509272575E0,1.038100324E1
1.166698000E-2,4.516012192E0,-1.840176344E0,-7.206882477E0,8.701710759E0
1.406994900E-2,4.516012192E0,-1.840176344E0,-7.206882477E0,8.701710759E0
1.651802200E-2,5.437740326E0,-2.144227028E0,-8.351262093E0,1.019364056E1
1.901119900E-2,5.437740326E0,-2.144227028E0,-8.351262093E0,1.019364056E1
2.150453200E-2,5.456892967E0,-2.134650469E0,-8.346473694E0,1.019794276E1
2.399807400E-2,5.456892967E0,-2.134650469E0,-8.346473694E0,1.019794276E1
2.649182400E-2,5.461681366E0,-2.137044668E0,-8.312955856E0,1.017360105E1
2.898573000E-2,5.461681366E0,-2.137044668E0,-8.312955856E0,1.017360105E1
3.147963600E-2,5.499986649E0,-2.151409388E0,-8.305773735E0,1.019138326E1
3.397343800E-2,5.519139767E0,-2.141832829E0,-8.291409492E0,1.018802351E1
3.646718800E-2,5.540686607E0,-2.153803349E0,-8.272256851E0,1.018667317E1
3.896099000E-2,5.576598167E0,-2.156197548E0,-8.281832695E0,1.021451848E1
4.145484400E-2,5.602932930E0,-2.153803349E0,-8.265073776E0,1.021485050E1
4.394869900E-2,5.631662369E0,-2.165773869E0,-8.238739014E0,1.021190570E1
4.644250100E-2,5.636450768E0,-2.175350428E0,-8.243527412E0,1.022044377E1
4.893630300E-2,5.646027088E0,-2.192109108E0,-8.245921135E0,1.023123549E1
5.143015700E-2,5.665179729E0,-2.199291229E0,-8.198040009E0,1.020485195E1
5.392401100E-2,5.657997608E0,-2.192109108E0,-8.217191696E0,1.021472068E1
5.641781300E-2,5.665179729E0,-2.196897030E0,-8.210010529E0,1.021395569E1
5.891161500E-2,5.638844490E0,-2.213655710E0,-8.214797974E0,1.020684792E1
6.140546900E-2,5.653209209E0,-2.201685429E0,-8.233950615E0,1.022761633E1
6.389932400E-2,5.643632889E0,-2.206473589E0,-8.250709534E0,1.023686112E1
6.639317800E-2,5.595750809E0,-2.216049910E0,-8.255497932E0,1.021648425E1
6.888703200E-2,5.602932930E0,-2.225626230E0,-8.269862175E0,1.023410426E1
7.137349000E-2,5.583780289E0,-2.223232269E0,-8.284227371E0,1.023473435E1
7.383520900E-2,5.552657127E0,-2.237596750E0,-8.262680054E0,1.020346618E1
7.627989700E-2,5.519139767E0,-2.242385149E0,-8.265073776E0,1.018825988E1
7.872536500E-2,5.492804527E0,-2.256749630E0,-8.219586372E0,1.014028701E1
8.117083400E-2,5.468863487E0,-2.251961231E0,-8.236345291E0,1.013988072E1
8.361557400E-2,5.425769806E0,-2.244779110E0,-8.200433731E0,1.008588740E1
8.606026100E-2,5.406617165E0,-2.239990711E0,-8.181281090E0,1.005894765E1
8.850578200E-2,5.370705605E0,-2.220838070E0,-8.178886414E0,1.003348311E1
9.095125100E-2,5.341976166E0,-2.213655710E0,-8.138187408E0,9.983339885E0
9.339593800E-2,5.315640926E0,-2.220838070E0,-8.128610611E0,9.963055287E0
9.584062600E-2,5.274941444E0,-2.201685429E0,-8.121428490E0,9.931265110E0
9.828614700E-2,5.272547722E0,-2.216049910E0,-8.176492691E0,9.978259839E0
1.007316150E-1,5.270153522E0,-2.223232269E0,-8.162128448E0,9.966826008E0
1.031763030E-1,5.267759323E0,-2.235202789E0,-8.171704292E0,9.976079933E0
1.056209900E-1,5.251000881E0,-2.239990711E0,-8.176492691E0,9.972241542E0
1.080665110E-1,5.246212482E0,-2.251961231E0,-8.188463211E0,9.982234447E0
1.105119800E-1,5.251000881E0,-2.266326189E0,-8.198040009E0,9.995854372E0
1.129566670E-1,5.246212482E0,-2.273508310E0,-8.210010529E0,1.000479177E1
1.154013550E-1,5.253394604E0,-2.285478830E0,-8.205221176E0,1.000735844E1
1.178468760E-1,5.251000881E0,-2.283084869E0,-8.219586372E0,1.001733931E1
1.202923440E-1,5.236636162E0,-2.280690670E0,-8.207615852E0,9.999443295E0
1.227370840E-1,5.255788803E0,-2.297449350E0,-8.210010529E0,1.001528144E1
1.251817720E-1,5.253394604E0,-2.330966473E0,-8.202827454E0,1.001588427E1
1.276272400E-1,5.241424084E0,-2.340543032E0,-8.174098969E0,9.988321283E0
1.300727090E-1,5.260577202E0,-2.335754871E0,-8.157340050E0,9.983567499E0
1.325174490E-1,5.262970924E0,-2.366878033E0,-8.152551651E0,9.988246743E0
1.349621360E-1,5.255788803E0,-2.345331430E0,-8.131004333E0,9.961783321E0
1.374076570E-1,5.255788803E0,-2.359695911E0,-8.116640091E0,9.953458047E0
1.398531260E-1,5.267759323E0,-2.366878033E0,-8.080728531E0,9.932249166E0
1.422978130E-1,5.267759323E0,-2.395607233E0,-8.056787491E0,9.919679782E0
1.447425010E-1,5.277335644E0,-2.388425112E0,-8.011299133E0,9.886139783E0
1.471880220E-1,5.246212482E0,-2.402789593E0,-7.937082767E0,9.812921384E0
1.496334900E-1,5.279729843E0,-2.405183792E0,-7.937082767E0,9.831466785E0
1.520781780E-1,5.258183002E0,-2.395607233E0,-7.867653847E0,9.761526497E0
1.545228650E-1,5.241424084E0,-2.433912754E0,-7.800619125E0,9.708043905E0
1.569683860E-1,5.239030361E0,-2.445883274E0,-7.745554447E0,9.665577986E0
1.594138550E-1,5.217483044E0,-2.433912754E0,-7.692884445E0,9.608669611E0
1.618585420E-1,5.207906723E0,-2.429124832E0,-7.664155006E0,9.579259462E0
1.643032300E-1,5.171995163E0,-2.445883274E0,-7.649790764E0,9.552548230E0
1.667487510E-1,5.176783562E0,-2.479400873E0,-7.635426044E0,9.552290176E0
1.691942190E-1,5.164813042E0,-2.486582994E0,-7.635426044E0,9.547676137E0
1.716389590E-1,5.136083603E0,-2.512917995E0,-7.625849724E0,9.531405754E0
1.740836470E-1,5.128901482E0,-2.520100594E0,-7.637820244E0,9.539016484E0
1.765291150E-1,5.085807800E0,-2.546435595E0,-7.673731804E0,9.551750364E0
1.789746360E-1,5.102566719E0,-2.553617716E0,-7.676125526E0,9.564520566E0
1.814193240E-1,5.090596199E0,-2.575164795E0,-7.721613407E0,9.600466499E0
1.838640110E-1,5.092989922E0,-2.608682156E0,-7.743160725E0,9.628099861E0
1.863095320E-1,5.071443081E0,-2.620652676E0,-7.759919167E0,9.633467747E0
1.887550010E-1,5.059472561E0,-2.620652676E0,-7.800619125E0,9.660007338E0
1.911996880E-1,5.057078838E0,-2.642199516E0,-7.824560165E0,9.683956136E0
1.936443760E-1,5.073837280E0,-2.670928717E0,-7.829348087E0,9.704451372E0
1.960898970E-1,5.042714119E0,-2.673322916E0,-7.860471725E0,9.714043280E0
1.985353650E-1,5.042714119E0,-2.692475557E0,-7.901171207E0,9.752276491E0
2.009800530E-1,5.035531521E0,-2.685293436E0,-7.891594410E0,9.738821328E0
2.034247400E-1,5.033137798E0,-2.699657917E0,-7.917929649E0,9.762901152E0
2.058702610E-1,5.037925720E0,-2.725993156E0,-7.917929649E0,9.772683571E0
2.083157300E-1,5.016379356E0,-2.694869518E0,-7.922718048E0,9.756835800E0
2.107604690E-1,5.018773079E0,-2.709234238E0,-7.944264889E0,9.779538741E0
2.132051570E-1,5.018773079E0,-2.704446077E0,-7.934688568E0,9.770434713E0
2.156506260E-1,5.016379356E0,-2.690081596E0,-7.946659088E0,9.774967596E0
2.180960940E-1,5.033137798E0,-2.723598719E0,-7.920324326E0,9.771489318E0
2.205408340E-1,5.049896240E0,-2.725993156E0,-7.934688568E0,9.792434498E0
2.229855220E-1,5.078625679E0,-2.721204758E0,-7.941870689E0,9.811763561E0
2.254310420E-1,5.109748840E0,-2.718810558E0,-7.939476490E0,9.825311751E0
2.278765110E-1,5.145659924E0,-2.749933958E0,-7.956235409E0,9.866186432E0
2.303211990E-1,5.183965683E0,-2.728387117E0,-7.941870689E0,9.868683119E0
2.327658860E-1,5.205512524E0,-2.742751598E0,-7.958629608E0,9.897465949E0
2.352114070E-1,5.243818283E0,-2.745145798E0,-7.972994328E0,9.929858719E0
2.376568760E-1,5.274941444E0,-2.764298677E0,-7.987358570E0,9.963144652E0
2.401015630E-1,5.310853004E0,-2.754722118E0,-7.996934891E0,9.987222899E0
2.425462510E-1,5.346764565E0,-2.769086838E0,-8.037634850E0,1.004287345E1
2.449917720E-1,5.346764565E0,-2.795421839E0,-8.025664330E0,1.004059572E1
2.474372400E-1,5.382676125E0,-2.790633678E0,-8.049604416E0,1.007754781E1
2.498819800E-1,5.389858246E0,-2.802603960E0,-8.047210693E0,1.008279529E1
2.523266670E-1,5.413799286E0,-2.795421839E0,-8.040028572E0,1.008789698E1
2.547721880E-1,5.406617165E0,-2.812180519E0,-8.037634850E0,1.008679545E1
2.572176570E-1,5.392252445E0,-2.840909719E0,-7.992146969E0,1.005094859E1
2.596623440E-1,5.406617165E0,-2.821756840E0,-7.968205929E0,1.003424768E1
2.621070320E-1,5.368311882E0,-2.838515520E0,-7.956235409E0,1.000887729E1
2.645525530E-1,5.373099804E0,-2.826545000E0,-7.946659088E0,1.000044743E1
2.669980220E-1,5.370705605E0,-2.843303919E0,-7.920324326E0,9.983005223E0
2.694427090E-1,5.358735085E0,-2.838515520E0,-7.889200687E0,9.950512527E0
2.718873970E-1,5.330005646E0,-2.848092079E0,-7.872442245E0,9.924511856E0
2.743329170E-1,5.358735085E0,-2.831333399E0,-7.855683327E0,9.921907632E0
2.767783860E-1,5.353946686E0,-2.860062599E0,-7.846106529E0,9.919984418E0
2.792231260E-1,5.351552486E0,-2.833727360E0,-7.834136009E0,9.901657022E0
2.816678130E-1,5.351552486E0,-2.814574480E0,-7.805407047E0,9.873465587E0
2.841132820E-1,5.353946686E0,-2.819362879E0,-7.771889687E0,9.849660982E0
2.865587510E-1,5.344370842E0,-2.807392359E0,-7.719219685E0,9.799495094E0
2.890034900E-1,5.368311882E0,-2.804998398E0,-7.673731804E0,9.776141789E0
2.914481780E-1,5.377887726E0,-2.804998398E0,-7.676125526E0,9.783281428E0
2.938936990E-1,5.377887726E0,-2.804998398E0,-7.659367085E0,9.770138000E0
2.963391670E-1,5.375493526E0,-2.807392359E0,-7.630638123E0,9.747000598E0
2.987838550E-1,5.397040844E0,-2.783451319E0,-7.645002842E0,9.763284261E0
3.012285420E-1,5.423375607E0,-2.783451319E0,-7.618667603E0,9.757289596E0
3.036740630E-1,5.428164005E0,-2.797815800E0,-7.633032322E0,9.775270848E0
3.061195320E-1,5.432951927E0,-2.793027878E0,-7.630638123E0,9.774692298E0
3.085642190E-1,5.447316647E0,-2.807392359E0,-7.652184486E0,9.803603313E0
3.110089070E-1,5.459287167E0,-2.809786320E0,-7.676125526E0,9.829629628E0
3.134544280E-1,5.499986649E0,-2.800209999E0,-7.700066566E0,9.868234609E0
3.158998970E-1,5.543080807E0,-2.807392359E0,-7.724007607E0,9.912996025E0
3.183446360E-1,5.514351845E0,-2.781057358E0,-7.726402283E0,9.891392649E0
3.207893240E-1,5.567021847E0,-2.783451319E0,-7.747948647E0,9.938311814E0
3.232348440E-1,5.559839249E0,-2.802603960E0,-7.776678085E0,9.962084293E0
3.256803130E-1,5.559839249E0,-2.809786320E0,-7.807801247E0,9.988416889E0
3.281250010E-1,5.576598167E0,-2.793027878E0,-7.819771767E0,1.000241383E1
3.305696880E-1,5.590962887E0,-2.800209999E0,-7.841318607E0,1.002927313E1
3.330152090E-1,5.576598167E0,-2.793027878E0,-7.860471725E0,1.003426468E1
3.354606780E-1,5.569415569E0,-2.790633678E0,-7.848501205E0,1.002022940E1
3.379053650E-1,5.564627647E0,-2.781057358E0,-7.843712807E0,1.001115335E1
3.403500530E-1,5.526322365E0,-2.776268959E0,-7.865259647E0,1.000550936E1
3.427955740E-1,5.514351845E0,-2.785845280E0,-7.846106529E0,9.986510795E0
3.452410420E-1,5.495198727E0,-2.790633678E0,-7.841318607E0,9.973521087E0
3.476857820E-1,5.480834007E0,-2.764298677E0,-7.817377567E0,9.939430599E0
3.501304690E-1,5.461681366E0,-2.757116318E0,-7.791042805E0,9.906159787E0
3.525759900E-1,5.452105045E0,-2.735569239E0,-7.771889687E0,9.879830858E0
3.550214590E-1,5.397040844E0,-2.725993156E0,-7.757524967E0,9.835562118E0
3.574661470E-1,5.404222965E0,-2.714022636E0,-7.752737045E0,9.832419663E0
3.599108340E-1,5.404222965E0,-2.697263718E0,-7.757524967E0,9.831584360E0
3.623563550E-1,5.401828766E0,-2.694869518E0,-7.740766525E0,9.816391503E0
3.648018240E-1,5.387464046E0,-2.678111076E0,-7.735978127E0,9.800122722E0
3.672465110E-1,5.385070324E0,-2.678111076E0,-7.735978127E0,9.798807014E0
3.696911990E-1,5.380281925E0,-2.685293436E0,-7.735978127E0,9.798142273E0
3.721367190E-1,5.373099804E0,-2.668534517E0,-7.740766525E0,9.793403105E0
3.745821880E-1,5.365917206E0,-2.673322916E0,-7.731190205E0,9.783201156E0
3.770269280E-1,5.377887726E0,-2.661352396E0,-7.750343323E0,9.801647545E0
3.794716150E-1,5.401828766E0,-2.658958435E0,-7.738372803E0,9.804704361E0
3.819171360E-1,5.382676125E0,-2.649381876E0,-7.791042805E0,9.833248424E0
3.843626050E-1,5.392252445E0,-2.658958435E0,-7.779072285E0,9.831602718E0
3.868072920E-1,5.385070324E0,-2.630228996E0,-7.788648605E0,9.827519222E0
3.892519800E-1,5.392252445E0,-2.625440836E0,-7.805407047E0,9.843460021E0
3.916975010E-1,5.394646645E0,-2.632622957E0,-7.803013325E0,9.844792177E0
3.941429690E-1,5.397040844E0,-2.608682156E0,-7.786254406E0,9.826445448E0
3.965877090E-1,5.411405087E0,-2.596711636E0,-7.788648605E0,9.833069888E0
3.990323970E-1,5.409011364E0,-2.613470316E0,-7.795830727E0,9.841880295E0
4.014778650E-1,5.430558205E0,-2.587135315E0,-7.774283886E0,9.829736593E0
4.039233340E-1,5.442528725E0,-2.570376635E0,-7.800619125E0,9.852797253E0
4.063680740E-1,5.461681366E0,-2.591923475E0,-7.783860207E0,9.855785629E0
4.088127610E-1,5.444922447E0,-2.589529276E0,-7.788648605E0,9.849664432E0
4.112582820E-1,5.442528725E0,-2.572770596E0,-7.769495487E0,9.828800923E0
4.137037510E-1,5.464075565E0,-2.553617716E0,-7.755131245E0,9.824415802E0
4.161484380E-1,5.442528725E0,-2.570376635E0,-7.762313843E0,9.822498214E0
4.185931260E-1,5.444922447E0,-2.591923475E0,-7.740766525E0,9.812477473E0
4.210386470E-1,5.466469765E0,-2.548829556E0,-7.716825485E0,9.794295246E0
4.234841150E-1,5.447316647E0,-2.577558756E0,-7.697672844E0,9.776054163E0
4.259288550E-1,5.440134525E0,-2.599105835E0,-7.688096046E0,9.770221882E0
4.283735420E-1,5.428164005E0,-2.591923475E0,-7.692884445E0,9.765423844E0
4.308190110E-1,5.428164005E0,-2.596711636E0,-7.642608643E0,9.727144630E0
4.332645320E-1,5.411405087E0,-2.591923475E0,-7.606697083E0,9.688302886E0
4.357092190E-1,5.413799286E0,-2.591923475E0,-7.575573444E0,9.665226486E0
4.381539070E-1,5.397040844E0,-2.601499796E0,-7.563602924E0,9.649038307E0
4.405994280E-1,5.382676125E0,-2.596711636E0,-7.525297642E0,9.609693969E0
4.430448970E-1,5.361129284E0,-2.613470316E0,-7.508539200E0,9.589061227E0
4.454895840E-1,5.346764565E0,-2.603893757E0,-7.465445042E0,9.544685625E0
4.479342720E-1,5.334794044E0,-2.630228996E0,-7.436716080E0,9.522755805E0
4.503797920E-1,5.313247204E0,-2.599105835E0,-7.381651402E0,9.459108013E0
4.528252610E-1,5.315640926E0,-2.594317675E0,-7.352922440E0,9.436736250E0
4.552700010E-1,5.310853004E0,-2.606287956E0,-7.328981400E0,9.418697622E0
4.577146880E-1,5.313247204E0,-2.601499796E0,-7.338558197E0,9.426178093E0
4.601602090E-1,5.306064606E0,-2.620652676E0,-7.324193001E0,9.416259616E0
4.626056780E-1,5.286911964E0,-2.606287956E0,-7.300251961E0,9.382848913E0
4.650503650E-1,5.298882484E0,-2.594317675E0,-7.302646637E0,9.388146126E0
4.674950530E-1,5.296488762E0,-2.613470316E0,-7.309828758E0,9.397692098E0
4.699405740E-1,5.298882484E0,-2.601499796E0,-7.319405079E0,9.403172203E0
4.723860420E-1,5.298882484E0,-2.589529276E0,-7.338558197E0,9.414789104E0
4.748307820E-1,5.301276684E0,-2.575164795E0,-7.326587677E0,9.402866328E0
4.772754690E-1,5.279729843E0,-2.560800076E0,-7.328981400E0,9.388674699E0
4.797209900E-1,5.255788803E0,-2.548829556E0,-7.336163521E0,9.377587283E0
4.821664590E-1,5.272547722E0,-2.544041634E0,-7.328981400E0,9.380078660E0
4.846111470E-1,5.282123566E0,-2.544041634E0,-7.328981400E0,9.385464589E0
4.870558340E-1,5.286911964E0,-2.534465075E0,-7.355316639E0,9.406148744E0
4.895013550E-1,5.265365124E0,-2.541647434E0,-7.348134041E0,9.390373552E0
4.919468240E-1,5.267759323E0,-2.532071114E0,-7.324193001E0,9.370404235E0
4.943915630E-1,5.270153522E0,-2.522494555E0,-7.336163521E0,9.378528250E0
4.968362510E-1,5.277335644E0,-2.522494555E0,-7.343346119E0,9.388183131E0
4.992817190E-1,5.272547722E0,-2.524888515E0,-7.360104561E0,9.399253196E0
5.017271880E-1,5.282123566E0,-2.536859035E0,-7.345740318E0,9.396615558E0
5.041719280E-1,5.286911964E0,-2.529676914E0,-7.391228199E0,9.432971838E0
5.066166150E-1,5.318035126E0,-2.546435595E0,-7.391228199E0,9.454950350E0
5.090621360E-1,5.325217724E0,-2.548829556E0,-7.441504002E0,9.498971403E0
5.115076050E-1,5.351552486E0,-2.556012154E0,-7.451080799E0,9.523177895E0
5.139522920E-1,5.389858246E0,-2.563194275E0,-7.470232964E0,9.561637795E0
5.163969800E-1,5.404222965E0,-2.577558756E0,-7.537268162E0,9.625998459E0
5.188425010E-1,5.440134525E0,-2.575164795E0,-7.563602924E0,9.666158832E0
5.212879690E-1,5.478440285E0,-2.577558756E0,-7.599514484E0,9.716467336E0
5.237327090E-1,5.511957169E0,-2.558406115E0,-7.609091282E0,9.737832603E0
5.261773970E-1,5.509562969E0,-2.553617716E0,-7.666549683E0,9.780195887E0
5.286229170E-1,5.550262928E0,-2.558406115E0,-7.683308125E0,9.817539618E0
5.310683860E-1,5.578992367E0,-2.565588236E0,-7.688096046E0,9.839421713E0
5.335130740E-1,5.586174488E0,-2.565588236E0,-7.709642887E0,9.860333760E0
5.359577610E-1,5.590962887E0,-2.565588236E0,-7.712037086E0,9.864918906E0
5.384032820E-1,5.600539207E0,-2.589529276E0,-7.733583927E0,9.893433259E0
5.408487510E-1,5.600539207E0,-2.575164795E0,-7.709642887E0,9.870972930E0
5.432934380E-1,5.602932930E0,-2.560800076E0,-7.716825485E0,9.874206298E0
5.457381260E-1,5.590962887E0,-2.563194275E0,-7.709642887E0,9.862424871E0
5.481836470E-1,5.576598167E0,-2.565588236E0,-7.685702324E0,9.836193894E0
5.506291670E-1,5.526322365E0,-2.556012154E0,-7.654579163E0,9.780900734E0
5.530738550E-1,5.535898209E0,-2.553617716E0,-7.628243923E0,9.765103060E0
5.555185420E-1,5.492804527E0,-2.560800076E0,-7.609091282E0,9.727634283E0
5.579640630E-1,5.473651886E0,-2.551223755E0,-7.577967644E0,9.689953624E0
5.604095320E-1,5.459287167E0,-2.558406115E0,-7.558815002E0,9.668761164E0
5.628542190E-1,5.468863487E0,-2.546435595E0,-7.520509720E0,9.641103076E0
5.652989070E-1,5.442528725E0,-2.541647434E0,-7.510932922E0,9.617442694E0
5.677444280E-1,5.432951927E0,-2.532071114E0,-7.489386082E0,9.592666712E0
5.701898970E-1,5.411405087E0,-2.515312433E0,-7.491780281E0,9.577936804E0
5.726346360E-1,5.418587685E0,-2.522494555E0,-7.486992359E0,9.580142267E0
5.750793240E-1,5.413799286E0,-2.532071114E0,-7.491780281E0,9.583703804E0
5.775248440E-1,5.416193485E0,-2.508130074E0,-7.510932922E0,9.593747010E0
5.799703130E-1,5.428164005E0,-2.481794834E0,-7.501356602E0,9.586168209E0
5.824150010E-1,5.432951927E0,-2.493765354E0,-7.510932922E0,9.599476322E0
5.848596880E-1,5.456892967E0,-2.484189034E0,-7.534873962E0,9.629288740E0
5.873052090E-1,5.473651886E0,-2.486582994E0,-7.503750801E0,9.615104578E0
5.897506780E-1,5.476045609E0,-2.474612474E0,-7.513327122E0,9.620855827E0
5.921954170E-1,5.476045609E0,-2.450671673E0,-7.494174004E0,9.599766203E0
5.946401050E-1,5.516745567E0,-2.469824314E0,-7.470232964E0,9.609312896E0
5.970856260E-1,5.538292885E0,-2.441095352E0,-7.458262444E0,9.605067062E0
5.995310940E-1,5.547868729E0,-2.431518793E0,-7.424745560E0,9.582169780E0
6.019757820E-1,5.571809769E0,-2.419548273E0,-7.415169239E0,9.585614888E0
6.044204690E-1,5.581386089E0,-2.429124832E0,-7.431927681E0,9.606563755E0
6.068659900E-1,5.610115528E0,-2.414760113E0,-7.431927681E0,9.619667962E0
6.093114590E-1,5.646027088E0,-2.381242752E0,-7.429533482E0,9.630467625E0
6.117561990E-1,5.657997608E0,-2.402789593E0,-7.415169239E0,9.631773959E0
6.142008860E-1,5.672362328E0,-2.390819073E0,-7.419957161E0,9.640927055E0
6.166464070E-1,5.689120770E0,-2.371666431E0,-7.424745560E0,9.649753542E0
6.190918760E-1,5.708273888E0,-2.369272232E0,-7.446292400E0,9.677040467E0
6.215365630E-1,5.722638130E0,-2.376454592E0,-7.451080799E0,9.690961184E0
6.239812510E-1,5.751367092E0,-2.366878033E0,-7.436716080E0,9.694590301E0
6.264267720E-1,5.758549690E0,-2.354907513E0,-7.453474522E0,9.708798400E0
6.288722400E-1,5.784884453E0,-2.364484072E0,-7.448686600E0,9.723096478E0
6.313169800E-1,5.804037571E0,-2.323784351E0,-7.396016121E0,9.684414298E0
6.337616670E-1,5.792067051E0,-2.318996191E0,-7.422351837E0,9.696241068E0
6.362071360E-1,5.796854973E0,-2.318996191E0,-7.427139759E0,9.702766405E0
6.386526570E-1,5.830372810E0,-2.340543032E0,-7.429533482E0,9.729817909E0
6.410973440E-1,5.811219692E0,-2.323784351E0,-7.470232964E0,9.745492730E0
6.435420320E-1,5.837554455E0,-2.323784351E0,-7.467839241E0,9.759387207E0
6.459875530E-1,5.851919651E0,-2.323784351E0,-7.463051319E0,9.764326516E0
6.484330220E-1,5.866284370E0,-2.314208031E0,-7.508539200E0,9.805458278E0
6.508777610E-1,5.892619133E0,-2.314208031E0,-7.527691841E0,9.835886514E0
6.533224490E-1,5.921348095E0,-2.297449350E0,-7.554026604E0,9.869344188E0
6.557679170E-1,5.928530693E0,-2.295055389E0,-7.565997124E0,9.882260262E0
6.582133860E-1,5.930924892E0,-2.283084869E0,-7.575573444E0,9.888258674E0
6.606581260E-1,5.957259655E0,-2.287872791E0,-7.592332840E0,9.918004964E0
6.631028130E-1,5.988383293E0,-2.271114349E0,-7.597120762E0,9.936545613E0
6.655483340E-1,5.990777016E0,-2.266326189E0,-7.611485004E0,9.947881564E0
6.679938030E-1,5.995564938E0,-2.256749630E0,-7.633032322E0,9.965084056E0
6.704384900E-1,5.997959614E0,-2.235202789E0,-7.654579163E0,9.978187871E0
6.728831780E-1,6.021900654E0,-2.244779110E0,-7.656972885E0,9.996577139E0
6.753286990E-1,6.014718056E0,-2.256749630E0,-7.702461243E0,1.002983855E1
6.777741670E-1,6.038659096E0,-2.237596750E0,-7.721613407E0,1.005462861E1
6.802189070E-1,6.031476498E0,-2.254355669E0,-7.757524967E0,1.008166761E1
6.826635940E-1,6.060205936E0,-2.249567270E0,-7.771889687E0,1.010885346E1
6.851091150E-1,6.060205936E0,-2.242385149E0,-7.783860207E0,1.011646514E1
6.875545840E-1,6.043447018E0,-2.237596750E0,-7.798224926E0,1.011644221E1
6.899992720E-1,6.076964855E0,-2.220838070E0,-7.795830727E0,1.013097233E1
6.924439590E-1,6.055417538E0,-2.206473589E0,-7.767101765E0,1.009279332E1
6.948894800E-1,6.064994335E0,-2.218444109E0,-7.750343323E0,1.008828391E1
6.973349490E-1,6.064994335E0,-2.192109108E0,-7.726402283E0,1.006413389E1
6.997796880E-1,6.062600136E0,-2.187320709E0,-7.704854965E0,1.004511236E1
7.022243760E-1,6.055417538E0,-2.187320709E0,-7.690490723E0,1.002976076E1
7.046698970E-1,6.069782257E0,-2.168168068E0,-7.630638123E0,9.988485750E0
7.071153650E-1,6.067388058E0,-2.170562029E0,-7.628243923E0,9.985721943E0
7.095600530E-1,6.064994335E0,-2.146620989E0,-7.611485004E0,9.966285262E0
7.120047400E-1,6.043447018E0,-2.153803349E0,-7.554026604E0,9.910874767E0
7.144502610E-1,6.033871174E0,-2.158591509E0,-7.556421280E0,9.907907004E0
7.168957300E-1,6.043447018E0,-2.168168068E0,-7.515721321E0,9.884850611E0
7.193404690E-1,6.024294853E0,-2.120285988E0,-7.510932922E0,9.859100086E0
7.217851570E-1,6.043447018E0,-2.149015188E0,-7.482203484E0,9.855195944E0
7.242306780E-1,6.043447018E0,-2.132256508E0,-7.506144524E0,9.869750518E0
7.266761470E-1,6.043447018E0,-2.132256508E0,-7.472627640E0,9.844284307E0
7.291208340E-1,6.055417538E0,-2.098739147E0,-7.463051319E0,9.837170455E0
7.315655220E-1,6.038659096E0,-2.105921507E0,-7.460657120E0,9.826581996E0
7.340110420E-1,6.041053295E0,-2.089162588E0,-7.508539200E0,9.860886682E0
7.364565110E-1,6.057811737E0,-2.081980467E0,-7.501356602E0,9.864181495E0
7.389012510E-1,6.067388058E0,-2.053251028E0,-7.508539200E0,9.869508526E0
7.413459380E-1,6.055417538E0,-2.034098387E0,-7.510932922E0,9.860007666E0
7.437914590E-1,6.038659096E0,-2.026916027E0,-7.534873962E0,9.866514982E0
7.462369280E-1,6.036265373E0,-2.034098387E0,-7.508539200E0,9.846431679E0
7.486816150E-1,5.993171215E0,-2.012551546E0,-7.556421280E0,9.852307724E0
7.511263030E-1,5.974018574E0,-2.017339706E0,-7.539661884E0,9.828787247E0
7.535718240E-1,5.957259655E0,-2.034098387E0,-7.585150242E0,9.857028104E0
7.560172920E-1,5.928530693E0,-2.017339706E0,-7.592332840E0,9.841781019E0
7.584620320E-1,5.911771774E0,-2.017339706E0,-7.594726562E0,9.833543439E0
7.609067190E-1,5.897407055E0,-2.038886547E0,-7.613879204E0,9.844167047E0
7.633522400E-1,5.878254890E0,-2.041280746E0,-7.649790764E0,9.861034752E0
7.657977090E-1,5.871072292E0,-2.019733667E0,-7.645002842E0,9.848597992E0
7.682423970E-1,5.868678093E0,-2.036492586E0,-7.656972885E0,9.859914725E0
7.706870840E-1,5.851919651E0,-2.041280746E0,-7.692884445E0,9.878879581E0
7.731326050E-1,5.823190212E0,-2.046068907E0,-7.673731804E0,9.847949127E0
7.755780740E-1,5.784884453E0,-2.074798107E0,-7.719219685E0,9.866915823E0
7.780228130E-1,5.748973370E0,-2.074798107E0,-7.731190205E0,9.855292181E0
7.804675010E-1,5.715455532E0,-2.089162588E0,-7.724007607E0,9.833174755E0
7.829130220E-1,5.701091290E0,-2.086768627E0,-7.735978127E0,9.833737986E0
7.853584900E-1,5.650815010E0,-2.105921507E0,-7.738372803E0,9.810658964E0
7.878031780E-1,5.605327129E0,-2.108315468E0,-7.731190205E0,9.779365435E0
7.902478650E-1,5.555051327E0,-2.160985470E0,-7.709642887E0,9.745103739E0
7.926933860E-1,5.504775047E0,-2.168168068E0,-7.664155006E0,9.682085160E0
7.951388550E-1,5.459287167E0,-2.187320709E0,-7.628243923E0,9.632148961E0
7.975835940E-1,5.387464046E0,-2.225626230E0,-7.594726562E0,9.573821208E0
8.000282820E-1,5.334794044E0,-2.249567270E0,-7.570785522E0,9.530864275E0
8.024738030E-1,5.282123566E0,-2.273508310E0,-7.539661884E0,9.482413761E0
8.049192720E-1,5.212695122E0,-2.295055389E0,-7.537268162E0,9.447215517E0
8.073639590E-1,5.171995163E0,-2.297449350E0,-7.503750801E0,9.398621365E0
8.098086470E-1,5.116930962E0,-2.340543032E0,-7.515721321E0,9.388673555E0
8.122541670E-1,5.073837280E0,-2.342936993E0,-7.530085564E0,9.377385941E0
8.146996360E-1,5.037925720E0,-2.369272232E0,-7.565997124E0,9.393532826E0
8.171443760E-1,4.997226238E0,-2.400395632E0,-7.630638123E0,9.431903701E0
8.195890630E-1,4.963708878E0,-2.400395632E0,-7.673731804E0,9.449151539E0
8.220345840E-1,4.949344158E0,-2.424336672E0,-7.750343323E0,9.510059806E0
8.244800530E-1,4.925403118E0,-2.429124832E0,-7.860471725E0,9.588913342E0
8.269247400E-1,4.896674156E0,-2.465036392E0,-7.937082767E0,9.646300071E0
8.293694280E-1,4.846398354E0,-2.467430353E0,-8.023269653E0,9.692710946E0
8.318149490E-1,4.834427834E0,-2.462642193E0,-8.109457970E0,9.757028626E0
8.342604690E-1,4.781757355E0,-2.493765354E0,-8.147763252E0,9.770880976E0
8.367051570E-1,4.741057873E0,-2.479400873E0,-8.210010529E0,9.799455665E0
8.391498440E-1,4.721904755E0,-2.479400873E0,-8.221980095E0,9.800243358E0
8.415953650E-1,4.676417351E0,-2.486582994E0,-8.231556892E0,9.788283971E0
8.440408340E-1,4.633323193E0,-2.503341913E0,-8.236345291E0,9.776082462E0
8.464855740E-1,4.614170074E0,-2.493765354E0,-8.193250656E0,9.728246884E0
8.489302610E-1,4.578258514E0,-2.503341913E0,-8.193250656E0,9.713728845E0
8.513757300E-1,4.563894272E0,-2.503341913E0,-8.142974854E0,9.664568854E0
8.538212510E-1,4.537559032E0,-2.486582994E0,-8.111851692E0,9.621573408E0
8.562659380E-1,4.530376434E0,-2.491371393E0,-8.049604416E0,9.566993954E0
8.587106260E-1,4.539953232E0,-2.488977432E0,-8.001723289E0,9.530674667E0
8.611561470E-1,4.532771111E0,-2.493765354E0,-7.958629608E0,9.492347698E0
8.636016150E-1,4.537559032E0,-2.484189034E0,-7.877230167E0,9.423979639E0
8.660463550E-1,4.547135830E0,-2.477006912E0,-7.862865448E0,9.414704486E0
8.684910420E-1,4.530376434E0,-2.484189034E0,-7.822165966E0,9.374528585E0
8.709365630E-1,4.535165310E0,-2.474612474E0,-7.800619125E0,9.356339563E0
8.733820320E-1,4.554317474E0,-2.474612474E0,-7.781466007E0,9.349691320E0
8.758267190E-1,4.580653191E0,-2.491371393E0,-7.800619125E0,9.382908601E0
8.782714070E-1,4.642899513E0,-2.517706394E0,-7.831742287E0,9.446245213E0
8.807169280E-1,4.693175793E0,-2.500947475E0,-7.853289127E0,9.484449769E0
8.831623970E-1,4.738663673E0,-2.515312433E0,-7.884412766E0,9.536545218E0
8.856071360E-1,4.791333675E0,-2.534465075E0,-7.922718048E0,9.599471489E0
8.880518240E-1,4.839215755E0,-2.558406115E0,-7.953841209E0,9.655415111E0
8.904973440E-1,4.865550518E0,-2.589529276E0,-7.972994328E0,9.692671575E0
8.929428130E-1,4.913432598E0,-2.623046875E0,-7.963417530E0,9.717932577E0
8.953875010E-1,4.954132080E0,-2.649381876E0,-8.001723289E0,9.777025345E0
8.978321880E-1,4.987649441E0,-2.658958435E0,-7.975388050E0,9.775148155E0
9.002777090E-1,4.990043640E0,-2.699657917E0,-7.937082767E0,9.756329805E0
9.027231780E-1,4.992438316E0,-2.725993156E0,-7.901171207E0,9.735706727E0
9.051679170E-1,5.004408836E0,-2.747539759E0,-7.865259647E0,9.718816381E0
9.076126050E-1,5.009196758E0,-2.781057358E0,-7.834136009E0,9.705669436E0
9.100581260E-1,5.013984680E0,-2.804998398E0,-7.800619125E0,9.688019257E0
9.125035940E-1,5.011590481E0,-2.826545000E0,-7.750343323E0,9.652627487E0
9.149482820E-1,5.006802559E0,-2.836121559E0,-7.712037086E0,9.622222892E0
9.173929690E-1,4.978073120E0,-2.850486040E0,-7.664155006E0,9.573178919E0
9.198384900E-1,4.920615196E0,-2.860062599E0,-7.635426044E0,9.523242245E0
9.222839590E-1,4.870338917E0,-2.848092079E0,-7.570785522E0,9.441854854E0
9.247286990E-1,4.829638958E0,-2.833727360E0,-7.561209202E0,9.408895143E0
9.271733860E-1,4.767392635E0,-2.826545000E0,-7.542056084E0,9.359487120E0
9.296189070E-1,4.748239517E0,-2.797815800E0,-7.510932922E0,9.315989756E0
9.320643760E-1,4.717116833E0,-2.773874998E0,-7.479809761E0,9.267854540E0
9.345090630E-1,4.676417351E0,-2.778663158E0,-7.465445042E0,9.237029710E0
9.369537510E-1,4.671628475E0,-2.740357637E0,-7.460657120E0,9.219277480E0
9.393992720E-1,4.662052155E0,-2.749933958E0,-7.477415562E0,9.230851020E0
9.418447400E-1,4.662052155E0,-2.790633678E0,-7.451080799E0,9.221766192E0
9.442894800E-1,4.697963715E0,-2.807392359E0,-7.455868721E0,9.248907682E0
9.467341670E-1,4.736268997E0,-2.867244720E0,-7.458262444E0,9.288649793E0
9.491796880E-1,4.774575233E0,-2.910338640E0,-7.458262444E0,9.321604923E0
9.516251570E-1,4.844003677E0,-2.919914961E0,-7.412775040E0,9.324135820E0
9.540698970E-1,4.920615196E0,-2.939067841E0,-7.388834000E0,9.351226741E0
9.565145840E-1,4.992438316E0,-2.991737843E0,-7.367287159E0,9.388921969E0
9.589600530E-1,5.081019878E0,-3.022861242E0,-7.345740318E0,9.429440806E0
9.614055740E-1,5.145659924E0,-3.020467043E0,-7.357710838E0,9.472958671E0
9.638502610E-1,5.212695122E0,-3.025255442E0,-7.285887718E0,9.455607900E0
9.662949490E-1,5.277335644E0,-3.020467043E0,-7.266735077E0,9.475174475E0
9.687404690E-1,5.318035126E0,-3.010890722E0,-7.233217716E0,9.469234344E0
9.711859380E-1,5.332400322E0,-3.001314402E0,-7.192518234E0,9.443235668E0
9.736306780E-1,5.332400322E0,-2.994132042E0,-7.125483036E0,9.389985536E0
9.760753650E-1,5.318035126E0,-2.977373362E0,-7.099148273E0,9.356503404E0
9.785208340E-1,5.318035126E0,-2.936673641E0,-7.068024635E0,9.320006541E0
9.809663550E-1,5.298882484E0,-2.931885481E0,-7.084783554E0,9.320314698E0
9.834110420E-1,5.286911964E0,-2.912732601E0,-7.106329918E0,9.323914104E0
9.858557300E-1,5.286911964E0,-2.872033119E0,-7.123089314E0,9.324077098E0
9.883012510E-1,5.291700363E0,-2.864850760E0,-7.175759315E0,9.364880371E0
9.907467190E-1,5.313247204E0,-2.884003639E0,-7.285887718E0,9.467430099E0
9.931914590E-1,5.349158764E0,-2.910338640E0,-7.415169239E0,9.595223047E0
9.956361470E-1,5.382676125E0,-2.917520761E0,-7.534873962E0,9.708730879E0
9.980816670E-1,5.452105045E0,-2.924703121E0,-7.656972885E0,9.844215131E0
1.000527136E0,5.473651886E0,-2.946249962E0,-7.743160725E0,9.929642079E0
1.002971824E0,5.540686607E0,-3.003708363E0,-7.810195446E0,1.003596657E1
1.005416511E0,5.569415569E0,-3.013284922E0,-7.848501205E0,1.008450529E1
1.007862032E0,5.619691849E0,-3.065955162E0,-7.882018089E0,1.015417287E1
1.010307501E0,5.648421288E0,-3.087501764E0,-7.838924408E0,1.014327689E1
1.012752240E0,5.701091290E0,-3.147354364E0,-7.769495487E0,1.013771875E1
1.015196928E0,5.751367092E0,-3.195236206E0,-7.692884445E0,1.012265918E1
1.017642449E0,5.763337612E0,-3.216783285E0,-7.582756042E0,1.005295699E1
1.020087917E0,5.820796013E0,-3.264665127E0,-7.436716080E0,9.992219506E0
1.022532605E0,5.899801254E0,-3.295788527E0,-7.324193001E0,9.965624916E0
1.024977292E0,5.971624374E0,-3.312546968E0,-7.190123558E0,9.916206022E0
1.027422813E0,6.048235893E0,-3.317335367E0,-7.041689396E0,9.857548423E0
1.029868334E0,6.110482216E0,-3.346064568E0,-6.881285191E0,9.792151289E0
1.032313022E0,6.182305336E0,-3.329305887E0,-6.730456829E0,9.726470382E0
1.034757709E0,6.258916378E0,-3.350852728E0,-6.543716908E0,9.655178880E0
1.037203230E0,6.359467983E0,-3.322123528E0,-6.359371662E0,9.587541171E0
1.039648699E0,6.397774220E0,-3.298182487E0,-6.129538059E0,9.454139808E0
1.042093438E0,6.438473701E0,-3.312546968E0,-5.899704456E0,9.339883495E0
1.044538126E0,6.448050022E0,-3.288606167E0,-5.717752934E0,9.224151897E0
1.046983594E0,6.488749504E0,-3.269453287E0,-5.497496128E0,9.111292916E0
1.049429115E0,6.531843662E0,-3.264665127E0,-5.289209843E0,9.016582544E0
1.051873803E0,6.558178425E0,-3.274241686E0,-5.114439964E0,8.938000840E0
1.054318490E0,6.582119465E0,-3.291000366E0,-4.970794201E0,8.880527859E0
1.056764011E0,6.594089985E0,-3.319729567E0,-4.834330559E0,8.824589456E0
1.059209480E0,6.630001545E0,-3.331700087E0,-4.733778477E0,8.801466049E0
1.061654219E0,6.682671547E0,-3.353246927E0,-4.642802715E0,8.801021589E0
1.064098907E0,6.764070988E0,-3.396340609E0,-4.623650074E0,8.869381369E0
1.066544428E0,6.845469952E0,-3.446616888E0,-4.606891155E0,8.942207387E0
1.068989897E0,6.905322552E0,-3.489710569E0,-4.628437996E0,9.015763844E0
1.071434584E0,6.981934071E0,-3.530410051E0,-4.681107998E0,9.117234810E0
1.073879272E0,7.094456673E0,-3.583080292E0,-4.731384754E0,9.249636833E0
1.076324792E0,7.135156155E0,-3.597444773E0,-4.786448479E0,9.314620297E0
1.078770261E0,7.178250313E0,-3.628568411E0,-4.836724758E0,9.385504390E0
1.081215001E0,7.180644035E0,-3.650115013E0,-4.891788960E0,9.424149171E0
1.083659688E0,7.144732475E0,-3.664479494E0,-4.901365757E0,9.407390626E0
1.086105209E0,7.101639271E0,-3.645326853E0,-4.951641560E0,9.393638397E0
1.088550678E0,7.027421474E0,-3.654903412E0,-5.011494160E0,9.373262252E0
1.090995365E0,6.929263592E0,-3.642932892E0,-5.045011044E0,9.313312537E0
1.093440053E0,6.857440472E0,-3.628568411E0,-5.102469444E0,9.285805994E0
1.095885574E0,6.802376747E0,-3.623780012E0,-5.176686764E0,9.284513818E0
1.098331042E0,6.756888866E0,-3.618991852E0,-5.272450447E0,9.303299570E0
1.100775782E0,6.730553627E0,-3.607021332E0,-5.380185127E0,9.341164115E0
1.103220469E0,6.709006786E0,-3.592656851E0,-5.531013489E0,9.407978822E0
1.105665990E0,6.718583107E0,-3.623780012E0,-5.698600292E0,9.526026760E0
1.108111459E0,6.754494667E0,-3.626173973E0,-5.882946014E0,9.663404664E0
1.110556199E0,6.742524147E0,-3.671662092E0,-6.048138618E0,9.773572281E0
1.113000886E0,6.740129948E0,-3.683632612E0,-6.196572781E0,9.868941947E0
1.115446407E0,6.754494667E0,-3.690814734E0,-6.352189064E0,9.979760393E0
1.117891876E0,6.735341549E0,-3.695603132E0,-6.474287987E0,1.004682603E1
1.120336563E0,6.730553627E0,-3.712361574E0,-6.603569508E0,1.013356358E1
1.122781251E0,6.689854145E0,-3.669267893E0,-6.692151070E0,1.014901775E1
1.125226772E0,6.653942585E0,-3.650115013E0,-6.785521030E0,1.018045123E1
1.127672240E0,6.615637302E0,-3.614203691E0,-6.854949951E0,1.018918368E1
1.130116980E0,6.546208382E0,-3.554351091E0,-6.917196751E0,1.016532669E1
1.132561667E0,6.519873142E0,-3.484922409E0,-6.960289955E0,1.015377104E1
1.135007188E0,6.464808464E0,-3.393946648E0,-7.034507751E0,1.013888168E1
1.137452657E0,6.426503181E0,-3.326911926E0,-7.056054115E0,1.010723433E1
1.139897344E0,6.378621101E0,-3.238330126E0,-7.111118793E0,1.008670410E1
1.142342032E0,6.395379543E0,-3.178477526E0,-7.166182518E0,1.011720173E1
1.144787553E0,6.381015301E0,-3.116230965E0,-7.211670399E0,1.012108895E1
1.147233022E0,6.395379543E0,-3.063560724E0,-7.269129276E0,1.015512305E1
1.149677761E0,6.424108982E0,-3.070743322E0,-7.355316639E0,1.023715408E1
1.152122449E0,6.476778984E0,-3.046802282E0,-7.400804520E0,1.029580389E1
1.154567969E0,6.517478466E0,-3.042014122E0,-7.455868721E0,1.035960201E1
1.157013438E0,6.584513664E0,-3.030043602E0,-7.484598160E0,1.041903038E1
1.159458126E0,6.586907864E0,-3.039619923E0,-7.470232964E0,1.041302190E1
1.161902813E0,6.574937344E0,-3.032437563E0,-7.381651402E0,1.033993501E1
1.164348334E0,6.507902622E0,-3.044408083E0,-7.226035118E0,1.019003438E1
1.166793855E0,6.402562141E0,-3.061166763E0,-7.005778313E0,9.972185001E0
1.169238542E0,6.270886421E0,-3.082713604E0,-6.732851028E0,9.703526299E0
1.171683230E0,6.167940617E0,-3.089895964E0,-6.421617985E0,9.424867429E0
1.174128751E0,6.091329098E0,-3.149748564E0,-6.096020699E0,9.175329670E0
1.176574219E0,6.026688576E0,-3.200024605E0,-5.808728695E0,8.961164082E0
1.179018959E0,5.969230175E0,-3.247906685E0,-5.557348728E0,8.778652038E0
1.181463647E0,5.933318615E0,-3.298182487E0,-5.368214607E0,8.654478932E0
1.183909167E0,5.938107014E0,-3.370005608E0,-5.258086205E0,8.617744672E0
1.186354636E0,5.954865456E0,-3.449010849E0,-5.243721485E0,8.651746266E0
1.188799324E0,5.962048054E0,-3.542380571E0,-5.293997765E0,8.724728617E0
1.191244011E0,5.938107014E0,-3.604627371E0,-5.401731968E0,8.799611448E0
1.193689532E0,5.909377575E0,-3.669267893E0,-5.566924572E0,8.909260316E0
1.196135001E0,5.861495495E0,-3.753061295E0,-5.772817135E0,9.042566903E0
1.198579740E0,5.825583935E0,-3.829672575E0,-5.985892296E0,9.188837075E0
1.201024428E0,5.753761292E0,-3.870372057E0,-6.194178581E0,9.298031897E0
1.203469949E0,5.772913933E0,-3.923042297E0,-6.416830063E0,9.481165762E0
1.205915417E0,5.777702332E0,-3.908677816E0,-6.670604706E0,9.651765312E0
1.208360157E0,5.796854973E0,-3.882342577E0,-6.881285191E0,9.799397805E0
1.210804844E0,5.880648613E0,-3.856007576E0,-7.094359398E0,9.989031875E0
1.213250313E0,6.021900654E0,-3.779396296E0,-7.328981400E0,1.021083210E1
1.215695782E0,6.227793217E0,-3.697997093E0,-7.597120762E0,1.049651536E1
1.218140522E0,6.469596863E0,-3.635750532E0,-7.846106529E0,1.079980339E1
1.220585209E0,6.725765705E0,-3.511257410E0,-8.109457970E0,1.110532131E1
1.223030730E0,6.905322552E0,-3.413099289E0,-8.365626335E0,1.137173823E1
1.225476199E0,6.998692513E0,-3.274241686E0,-8.588276863E0,1.155252591E1
1.227920938E0,7.001086712E0,-3.152142525E0,-8.760652542E0,1.164904505E1
1.230365626E0,6.881381512E0,-3.022861242E0,-8.933028221E0,1.167433488E1
1.232811147E0,6.740129948E0,-2.867244720E0,-9.026396751E0,1.162438309E1
1.235256615E0,6.536631584E0,-2.764298677E0,-9.064702988E0,1.151250363E1
1.237701303E0,6.335526943E0,-2.642199516E0,-9.038368225E0,1.134954713E1
1.240145990E0,6.143999577E0,-2.565588236E0,-8.966545105E0,1.116825434E1
1.242591511E0,5.971624374E0,-2.481794834E0,-8.825293541E0,1.094099673E1
1.245036980E0,5.839949131E0,-2.436307192E0,-8.648130417E0,1.071591145E1
1.247481719E0,5.775308132E0,-2.419548273E0,-8.447025299E0,1.051478170E1
1.249926407E0,5.782490730E0,-2.374060631E0,-8.231556892E0,1.033595142E1
1.252371928E0,5.839949131E0,-2.347725391E0,-8.051999092E0,1.022015214E1
1.254817397E0,5.921348095E0,-2.366878033E0,-7.917929649E0,1.016651783E1
1.257262084E0,5.990777016E0,-2.357301712E0,-7.791042805E0,1.010676153E1
1.259706772E0,6.026688576E0,-2.388425112E0,-7.743160725E0,1.009861811E1
1.262152292E0,6.007535458E0,-2.412366152E0,-7.707249165E0,1.006537046E1
1.264597761E0,5.954865456E0,-2.405183792E0,-7.714431763E0,1.003781794E1
1.267042501E0,5.873466015E0,-2.426730633E0,-7.719219685E0,9.998648765E0
1.269487188E0,5.753761292E0,-2.438701153E0,-7.738372803E0,9.946629879E0
1.271932709E0,5.677150249E0,-2.443489313E0,-7.767101765E0,9.926154583E0
1.274378178E0,5.619691849E0,-2.421942234E0,-7.783860207E0,9.901273674E0
1.276822917E0,5.555051327E0,-2.409971714E0,-7.793436527E0,9.869357214E0
1.279267605E0,5.516745567E0,-2.352513552E0,-7.838924408E0,9.870032297E0
1.281713126E0,5.478440285E0,-2.307025671E0,-7.817377567E0,9.820746786E0
1.284158594E0,5.406617165E0,-2.261537790E0,-7.822165966E0,9.774064801E0
1.286603282E0,5.313247204E0,-2.199291229E0,-7.783860207E0,9.677600812E0
1.289047969E0,5.171995163E0,-2.156197548E0,-7.738372803E0,9.554116153E0
1.291493490E0,5.028349876E0,-2.079586267E0,-7.690490723E0,9.420861377E0
1.293938959E0,4.846398354E0,-2.031704187E0,-7.623455524E0,9.259183173E0
1.296383699E0,4.690781593E0,-2.000581026E0,-7.582756042E0,9.138049332E0
1.298828386E0,4.518406391E0,-1.967063546E0,-7.520509720E0,8.991295889E0
1.301273907E0,4.391519070E0,-1.921575665E0,-7.498962402E0,8.900130892E0
1.303719376E0,4.350819588E0,-1.880875945E0,-7.537268162E0,8.903804622E0
1.306164063E0,4.355607510E0,-1.816235304E0,-7.625849724E0,8.967921246E0
1.308608751E0,4.456159592E0,-1.761171103E0,-7.810195446E0,9.162872632E0
1.311054272E0,4.609382153E0,-1.684559941E0,-8.083122253E0,9.456268365E0
1.313499792E0,4.836821556E0,-1.624707460E0,-8.396749496E0,9.825472976E0
1.315944480E0,5.116930962E0,-1.588795900E0,-8.751075745E0,1.026102244E1
1.318389167E0,5.382676125E0,-1.545702219E0,-9.155678749E0,1.073260690E1
1.320834688E0,5.643632889E0,-1.495426059E0,-9.533946037E0,1.117958042E1
1.323280157E0,5.883042812E0,-1.452332377E0,-9.900242805E0,1.160750919E1
1.325724897E0,6.055417538E0,-1.399662256E0,-1.018992901E1,1.193573580E1
1.328169584E0,6.194275856E0,-1.325445056E0,-1.043891621E1,1.221052126E1
1.330615105E0,6.268492699E0,-1.272774935E0,-1.063283825E1,1.240851345E1
1.333060574E0,6.282856941E0,-1.186587334E0,-1.077169514E1,1.252643992E1
1.335505261E0,6.266098499E0,-1.119552612E0,-1.078366566E1,1.252217367E1
1.337949949E0,6.206246376E0,-1.088429332E0,-1.073578453E1,1.244826261E1
1.340395469E0,6.148787498E0,-1.050123811E0,-1.057777309E1,1.228005014E1
1.342840938E0,6.021900654E0,-1.019000530E0,-1.032399940E1,1.199527462E1
1.345285678E0,5.926136494E0,-1.002241850E0,-1.002952480E1,1.169251685E1
1.347730365E0,5.758549690E0,-9.998477101E-1,-9.713503838E0,1.133634627E1
1.350175886E0,5.619691849E0,-9.830890298E-1,-9.390299797E0,1.098749884E1
1.352621355E0,5.490410805E0,-9.447834492E-1,-9.107796669E0,1.067657186E1
1.355066042E0,5.334794044E0,-9.783008099E-1,-8.834870338E0,1.036687194E1
1.357510730E0,5.198330879E0,-9.495716691E-1,-8.585883141E0,1.008175181E1
1.359956251E0,5.107354641E0,-9.639362693E-1,-8.391962051E0,9.871133250E0
1.362401719E0,5.066655159E0,-9.376011491E-1,-8.296197891E0,9.766114369E0
1.364846459E0,5.057078838E0,-9.423893094E-1,-8.224374771E0,9.700643503E0
1.367291147E0,5.107354641E0,-9.639362693E-1,-8.248315811E0,9.749305528E0
1.369736667E0,5.167207241E0,-9.854831696E-1,-8.322532654E0,9.845595844E0
1.372182136E0,5.217483044E0,-1.023788691E0,-8.399143219E0,9.940617657E0
1.374626876E0,5.286911964E0,-1.069276571E0,-8.482936859E0,1.005261201E1
1.377071563E0,5.284518242E0,-1.160252333E0,-8.571518898E0,1.013623474E1
1.379517084E0,5.267759323E0,-1.217710733E0,-8.600248337E0,1.015856187E1
1.381962553E0,5.193542004E0,-1.294321775E0,-8.547577858E0,1.008509963E1
1.384407240E0,5.052290440E0,-1.351780176E0,-8.466178894E0,9.951338272E0
1.386851928E0,4.942161560E0,-1.397268057E0,-8.360837936E0,9.812284643E0
1.389297449E0,4.798516273E0,-1.445150137E0,-8.229162216E0,9.635005352E0
1.391742917E0,4.662052155E0,-1.452332377E0,-8.083122253E0,9.443562092E0
1.394187657E0,4.539953232E0,-1.457120538E0,-7.934688568E0,9.257086922E0
1.396632344E0,4.441795349E0,-1.442755938E0,-7.838924408E0,9.124682268E0
1.399077865E0,4.369972229E0,-1.414026737E0,-7.810195446E0,9.060644668E0
1.401523334E0,4.334060669E0,-1.435573578E0,-7.793436527E0,9.032309023E0
1.403968074E0,4.302937508E0,-1.478667498E0,-7.776678085E0,9.009908479E0
1.406412761E0,4.379548550E0,-1.538519859E0,-7.843712807E0,9.114346902E0
1.408858230E0,4.434613228E0,-1.629495621E0,-7.932294846E0,9.232678483E0
1.411303751E0,4.475312710E0,-1.715683222E0,-8.013693810E0,9.337627174E0
1.413748438E0,4.535165310E0,-1.806658983E0,-8.061574936E0,9.424475132E0
1.416193126E0,4.537559032E0,-1.880875945E0,-8.114246368E0,9.485153157E0
1.418638647E0,4.532771111E0,-1.928757906E0,-8.183674812E0,9.551892715E0
1.421084115E0,4.527982712E0,-1.979034066E0,-8.238739014E0,9.607081961E0
1.423528855E0,4.489676952E0,-2.000581026E0,-8.360837936E0,9.698615086E0
1.425973542E0,4.458554268E0,-2.010157347E0,-8.425478935E0,9.742080579E0
1.428419063E0,4.434613228E0,-2.019733667E0,-8.523636818E0,9.818223015E0
1.430864532E0,4.439401150E0,-2.026916027E0,-8.643342018E0,9.925927281E0
1.433309219E0,4.451371670E0,-2.050857067E0,-8.755864143E0,1.003423546E1
1.435753907E0,4.504041672E0,-2.038886547E0,-8.877963066E0,1.016177533E1
1.438199428E0,4.527982712E0,-2.081980467E0,-8.990486145E0,1.027940228E1
1.440644897E0,4.602199554E0,-2.077192307E0,-9.081461906E0,1.039076123E1
1.443089636E0,4.666840553E0,-2.093950987E0,-9.189196587E0,1.051690855E1
1.445534324E0,4.757816315E0,-2.110709667E0,-9.280172348E0,1.064018375E1
1.447979844E0,4.836821556E0,-2.132256508E0,-9.404664993E0,1.078837727E1
1.450425313E0,4.966102600E0,-2.144227028E0,-9.521976471E0,1.095116069E1
1.452870053E0,5.078625679E0,-2.172955990E0,-9.620134354E0,1.109329354E1
1.455314740E0,5.198330879E0,-2.225626230E0,-9.711110115E0,1.123751377E1
1.457760261E0,5.296488762E0,-2.235202789E0,-9.756598473E0,1.132431625E1
1.460205730E0,5.392252445E0,-2.278296471E0,-9.775750160E0,1.139439829E1
1.462650417E0,5.468863487E0,-2.304631472E0,-9.768568039E0,1.142999193E1
1.465095105E0,5.531110287E0,-2.307025671E0,-9.703927040E0,1.140533859E1
1.467540626E0,5.562233448E0,-2.342936993E0,-9.646469116E0,1.137902285E1
1.469986094E0,5.574203968E0,-2.369272232E0,-9.510004997E0,1.127498984E1
1.472430834E0,5.547868729E0,-2.402789593E0,-9.375936508E0,1.115618352E1
1.474875522E0,5.473651886E0,-2.424336672E0,-9.241866112E0,1.101137423E1
1.477321042E0,5.411405087E0,-2.465036392E0,-9.095826149E0,1.086709541E1
1.479766511E0,5.351552486E0,-2.522494555E0,-8.947392464E0,1.072650571E1
1.482211199E0,5.327611446E0,-2.620652676E0,-8.798957825E0,1.061475025E1
1.484655886E0,5.303670883E0,-2.690081596E0,-8.621794701E0,1.047381534E1
1.487101407E0,5.363523006E0,-2.769086838E0,-8.490118980E0,1.041716570E1
1.489546876E0,5.428164005E0,-2.860062599E0,-8.334503174E0,1.034934132E1
1.491991615E0,5.488016129E0,-2.955826521E0,-8.159733772E0,1.026822705E1
1.494436303E0,5.557445049E0,-3.053984642E0,-7.994541168E0,1.020415142E1
1.496881824E0,5.626873970E0,-3.132989883E0,-7.841318607E0,1.014709879E1
1.499327292E0,5.717849731E0,-3.214389086E0,-7.659367085E0,1.008424548E1
1.501772032E0,5.832766533E0,-3.312546968E0,-7.472627640E0,1.004162819E1
1.504216719E0,5.911771774E0,-3.377187729E0,-7.321799278E0,9.998159187E0
1.506662188E0,6.045841217E0,-3.446616888E0,-7.142241478E0,9.972109974E0
1.509107709E0,6.153575420E0,-3.520833731E0,-7.017748833E0,9.975548070E0
1.511552397E0,6.325951099E0,-3.573503733E0,-6.869314671E0,9.998753436E0
1.513997084E0,6.431291103E0,-3.621385813E0,-6.761579990E0,1.000974048E1
1.516442605E0,6.519873142E0,-3.642932892E0,-6.675392628E0,1.001701415E1
1.518888074E0,6.598878384E0,-3.671662092E0,-6.598781586E0,1.002847031E1
1.521332813E0,6.651548386E0,-3.700391054E0,-6.546111107E0,1.003930080E1
1.523777501E0,6.692248344E0,-3.705179214E0,-6.500623226E0,1.003855783E1
1.526223022E0,6.692248344E0,-3.721938133E0,-6.505411625E0,1.004785508E1
1.528668490E0,6.677883625E0,-3.736302614E0,-6.512593746E0,1.004828166E1
1.531113230E0,6.680277824E0,-3.779396296E0,-6.531746387E0,1.007837581E1
1.533557917E0,6.670701027E0,-3.824884415E0,-6.526958466E0,1.008608843E1
1.536003386E0,6.639577866E0,-3.901495457E0,-6.517382145E0,1.008870314E1
1.538448907E0,6.601272106E0,-3.949377298E0,-6.522170067E0,1.008529012E1
1.540893594E0,6.606060505E0,-4.021200180E0,-6.500623226E0,1.010288021E1
1.543338282E0,6.608454704E0,-4.095417500E0,-6.488653183E0,1.012653634E1
1.545783803E0,6.634789467E0,-4.164845943E0,-6.450346947E0,1.014757847E1
1.548229272E0,6.663518429E0,-4.243851185E0,-6.378524303E0,1.015373444E1
1.550674011E0,6.740129948E0,-4.284550667E0,-6.270790100E0,1.015428651E1
1.553118699E0,6.840682030E0,-4.334827423E0,-6.155873299E0,1.017253339E1
1.555564219E0,6.941234112E0,-4.356373787E0,-5.971527576E0,1.013991446E1
1.558009688E0,7.060939312E0,-4.377920628E0,-5.760846615E0,1.010991626E1
1.560454376E0,7.230920315E0,-4.385103226E0,-5.526225090E0,1.010220286E1
1.562899063E0,7.388930798E0,-4.380314827E0,-5.253298283E0,1.006879333E1
1.565344584E0,7.568488121E0,-4.373132706E0,-4.968400002E0,1.005441697E1
1.567790053E0,7.767198086E0,-4.356373787E0,-4.666743755E0,1.005414621E1
1.570234792E0,7.970696926E0,-4.327644825E0,-4.348328590E0,1.005825436E1
1.572679480E0,8.140677452E0,-4.303703785E0,-4.092160225E0,1.007662002E1
1.575125001E0,8.329811096E0,-4.282156944E0,-3.807262421E0,1.011028526E1
1.577570469E0,8.495003700E0,-4.260609627E0,-3.589399338E0,1.015882227E1
1.580015209E0,8.621891975E0,-4.239063263E0,-3.407447815E0,1.019398740E1
1.582459897E0,8.743990898E0,-4.219910145E0,-3.256619453E0,1.024063420E1
1.584905417E0,8.796660423E0,-4.205545902E0,-3.127337933E0,1.023953580E1
1.587350886E0,8.854118347E0,-4.183999062E0,-3.065091610E0,1.026138618E1
1.589795574E0,8.820601463E0,-4.131328583E0,-3.005239010E0,1.019325010E1
1.592240261E0,8.760748863E0,-4.119358540E0,-2.988480568E0,1.013167565E1
1.594685782E0,8.712866783E0,-4.093023300E0,-2.990874290E0,1.008028850E1
1.597131251E0,8.648226738E0,-4.116963863E0,-3.005239010E0,1.003855959E1
1.599575990E0,8.612314224E0,-4.172028542E0,-3.091426849E0,1.005657488E1
1.602020678E0,8.538097382E0,-4.198363781E0,-3.165643692E0,1.002729601E1
1.604466199E0,8.454304695E0,-4.236669064E0,-3.285348892E0,1.001090156E1
1.606911667E0,8.356146812E0,-4.301310062E0,-3.419418335E0,1.000094393E1
1.609356407E0,8.231652260E0,-4.385103226E0,-3.582216740E0,9.991071314E0
1.611801094E0,8.059278488E0,-4.437773228E0,-3.747409821E0,9.934227767E0
1.614246615E0,7.925209522E0,-4.478472710E0,-3.910208702E0,9.907340505E0
1.616692084E0,7.769592762E0,-4.526354790E0,-4.147224426E0,9.902218429E0
1.619136772E0,7.616370201E0,-4.538325310E0,-4.393816471E0,9.895004540E0
1.621581459E0,7.513423920E0,-4.552690029E0,-4.628437996E0,9.929801800E0
1.624026980E0,7.432024479E0,-4.559872150E0,-4.896577358E0,1.000019458E1
1.626472449E0,7.398507118E0,-4.545507908E0,-5.147957802E0,1.009460347E1
1.628917188E0,7.362595558E0,-4.516778946E0,-5.413702488E0,1.019398254E1
1.631361876E0,7.345837116E0,-4.500020027E0,-5.686629772E0,1.032227016E1
1.633807397E0,7.326683998E0,-4.432985306E0,-5.921251774E0,1.041119012E1
1.636252865E0,7.321896076E0,-4.409044266E0,-6.124749660E0,1.051486528E1
1.638697553E0,7.309925556E0,-4.330039024E0,-6.294731140E0,1.057392499E1
1.641142240E0,7.281196117E0,-4.263004303E0,-6.414435387E0,1.059877370E1
1.643587761E0,7.259649754E0,-4.188786983E0,-6.534140587E0,1.062748532E1
1.646033282E0,7.199797153E0,-4.097811222E0,-6.584416389E0,1.058223393E1
1.648477969E0,7.130368233E0,-4.021200180E0,-6.639481068E0,1.054015706E1
1.650922657E0,7.046574593E0,-3.966135979E0,-6.639481068E0,1.046265535E1
1.653368178E0,6.936446190E0,-3.887130737E0,-6.605963707E0,1.033744783E1
1.655813647E0,6.850258827E0,-3.793761015E0,-6.591598988E0,1.023561653E1
1.658258386E0,6.689854145E0,-3.738696814E0,-6.507805824E0,1.005403098E1
1.660703074E0,6.550996304E0,-3.669267893E0,-6.412041664E0,9.873872479E0
1.663148542E0,6.376227379E0,-3.580686331E0,-6.285154819E0,9.642653229E0
1.665594063E0,6.206246376E0,-3.532804251E0,-6.172631741E0,9.439257522E0
1.668038751E0,6.038659096E0,-3.465769529E0,-6.028985977E0,9.210083280E0
1.670483438E0,5.863889694E0,-3.429857969E0,-5.878157616E0,8.983421675E0
1.672928959E0,5.729820251E0,-3.403522730E0,-5.758452415E0,8.807643346E0
1.675374428E0,5.643632889E0,-3.381976128E0,-5.657900810E0,8.677568570E0
1.677819167E0,5.557445049E0,-3.384370089E0,-5.545378208E0,8.549290956E0
1.680263855E0,5.499986649E0,-3.362823248E0,-5.485525608E0,8.464598309E0
1.682709376E0,5.466469765E0,-3.358035088E0,-5.449614048E0,8.417659093E0
1.685154844E0,5.420981884E0,-3.336488008E0,-5.435249805E0,8.370253118E0
1.687599584E0,5.416193485E0,-3.346064568E0,-5.456796169E0,8.384982075E0
1.690044272E0,5.389858246E0,-3.348458529E0,-5.492707729E0,8.392412325E0
1.692489740E0,5.353946686E0,-3.331700087E0,-5.545378208E0,8.397391860E0
1.694935261E0,5.320429802E0,-3.350852728E0,-5.621989250E0,8.434568774E0
1.697379949E0,5.279729843E0,-3.370005608E0,-5.708176613E0,8.474418284E0
1.699824636E0,5.267759323E0,-3.381976128E0,-5.825487614E0,8.551219606E0
1.702270157E0,5.255788803E0,-3.434646368E0,-5.969133854E0,8.663179011E0
1.704715626E0,5.298882484E0,-3.480134010E0,-6.119961739E0,8.811550374E0
1.707160365E0,5.375493526E0,-3.494498491E0,-6.256424904E0,8.958253342E0
1.709605053E0,5.456892967E0,-3.539986610E0,-6.457529545E0,9.165635487E0
1.712050574E0,5.614903450E0,-3.561533213E0,-6.632298470E0,9.391434532E0
1.714496042E0,5.804037571E0,-3.578292131E0,-6.809462070E0,9.636379008E0
1.716940782E0,5.997959614E0,-3.571109772E0,-6.993807793E0,9.881381076E0
1.719385469E0,6.175122738E0,-3.578292131E0,-7.149424076E0,1.010200871E1
1.721830938E0,6.270886421E0,-3.554351091E0,-7.290676117E0,1.025238443E1
1.724276459E0,6.292433739E0,-3.508863211E0,-7.367287159E0,1.030455062E1
1.726721147E0,6.263704300E0,-3.470557690E0,-7.407986641E0,1.030325329E1
1.729165834E0,6.160758018E0,-3.386764288E0,-7.431927681E0,1.023028156E1
1.731611355E0,6.014718056E0,-3.300576687E0,-7.412775040E0,1.010048878E1
1.734056824E0,5.801643372E0,-3.235936165E0,-7.360104561E0,9.914710678E0
1.736501563E0,5.641238689E0,-3.128201485E0,-7.269129276E0,9.718511147E0
1.738946251E0,5.495198727E0,-3.061166763E0,-7.163788795E0,9.533510419E0
1.741391772E0,5.430558205E0,-2.989343882E0,-7.056054115E0,9.392286140E0
1.743837240E0,5.456892967E0,-2.941461802E0,-6.957896233E0,9.318916159E0
1.746281928E0,5.543080807E0,-2.874427080E0,-6.869314671E0,9.283079226E0
1.748726615E0,5.641238689E0,-2.850486040E0,-6.759186268E0,9.253942058E0
1.751172136E0,5.753761292E0,-2.828939438E0,-6.665816307E0,9.248879628E0
1.753617605E0,5.792067051E0,-2.807392359E0,-6.558081627E0,9.189011220E0
1.756062344E0,5.816008091E0,-2.824151039E0,-6.433588505E0,9.121010923E0
1.758507032E0,5.768126011E0,-2.790633678E0,-6.352189064E0,9.022705798E0
1.760952553E0,5.648421288E0,-2.785845280E0,-6.263607502E0,8.882475776E0
1.763398022E0,5.526322365E0,-2.783451319E0,-6.196572781E0,8.757017435E0
1.765842761E0,5.428164005E0,-2.809786320E0,-6.155873299E0,8.674943210E0
1.768287449E0,5.370705605E0,-2.802603960E0,-6.163055420E0,8.641893297E0
1.770732969E0,5.373099804E0,-2.821756840E0,-6.222908020E0,8.692358563E0
1.773178438E0,5.442528725E0,-2.876821280E0,-6.280365944E0,8.794328626E0
1.775623126E0,5.574203968E0,-2.872033119E0,-6.428800583E0,8.980523428E0
1.778067813E0,5.734608650E0,-2.895974159E0,-6.591598988E0,9.204432623E0
1.780513334E0,5.899801254E0,-2.888791561E0,-6.773550510E0,9.435770135E0
1.782958803E0,6.043447018E0,-2.872033119E0,-6.929167271E0,9.632506691E0
1.785403542E0,6.122452736E0,-2.857668400E0,-7.089571476E0,9.793503964E0
1.787848230E0,6.122452736E0,-2.819362879E0,-7.185335636E0,9.852019222E0
1.790293751E0,6.112875938E0,-2.788239479E0,-7.254764557E0,9.888030158E0
1.792739219E0,6.048235893E0,-2.733175278E0,-7.269129276E0,9.843355371E0
1.795183959E0,5.985989094E0,-2.673322916E0,-7.249976158E0,9.774501273E0
1.797628647E0,5.971624374E0,-2.625440836E0,-7.245188236E0,9.749153288E0
1.800074167E0,5.993171215E0,-2.567982674E0,-7.218852997E0,9.727511234E0
1.802519636E0,6.060205936E0,-2.510524035E0,-7.247581959E0,9.775288802E0
1.804964324E0,6.155970097E0,-2.443489313E0,-7.355316639E0,9.897842730E0
1.807409011E0,6.282856941E0,-2.386031151E0,-7.484598160E0,1.005915730E1
1.809854532E0,6.438473701E0,-2.304631472E0,-7.678520203E0,1.028226348E1
1.812300001E0,6.539025784E0,-2.249567270E0,-7.884412766E0,1.048729592E1
1.814744740E0,6.606060505E0,-2.172955990E0,-8.080728531E0,1.066114190E1
1.817189428E0,6.632395744E0,-2.134650469E0,-8.253103256E0,1.080088512E1
1.819634949E0,6.649154186E0,-2.067615747E0,-8.394355774E0,1.090648867E1
1.822080417E0,6.668307304E0,-1.988610506E0,-8.506877899E0,1.099035330E1
1.824525105E0,6.704218864E0,-1.952698946E0,-8.581094742E0,1.106321702E1
1.826969792E0,6.742524147E0,-1.885664225E0,-8.569125175E0,1.106558935E1
1.829415313E0,6.833499432E0,-1.849752665E0,-8.540394783E0,1.109308985E1
1.831860834E0,6.943628788E0,-1.809053063E0,-8.451813698E0,1.108692061E1
1.834305522E0,7.056151390E0,-1.777929664E0,-8.351262093E0,1.107672717E1
1.836750209E0,7.132761955E0,-1.734835982E0,-8.272256851E0,1.105966466E1
1.839195730E0,7.223738194E0,-1.713289022E0,-8.164522171E0,1.103526960E1
1.841641199E0,7.221343517E0,-1.701318622E0,-8.054393768E0,1.095059570E1
1.844085938E0,7.161491871E0,-1.670195341E0,-7.949053288E0,1.082884881E1
1.846530626E0,7.044180870E0,-1.643860221E0,-7.898777008E0,1.071043598E1
1.848976147E0,6.876593590E0,-1.655830741E0,-7.836530685E0,1.055653959E1
1.851421615E0,6.697036266E0,-1.641466022E0,-7.798224926E0,1.040946768E1
1.853866303E0,6.536631584E0,-1.631889701E0,-7.779072285E0,1.029099519E1
1.856310990E0,6.414532661E0,-1.667801261E0,-7.750343323E0,1.019782388E1
1.858756511E0,6.294827461E0,-1.653436542E0,-7.735978127E0,1.010960250E1
1.861201980E0,6.182305336E0,-1.686953902E0,-7.738372803E0,1.004734424E1
1.863646719E0,6.053023815E0,-1.689348102E0,-7.719219685E0,9.953860902E0
1.866091407E0,5.863889694E0,-1.698924422E0,-7.726402283E0,9.847275703E0
1.868536928E0,5.672362328E0,-1.710894942E0,-7.781466007E0,9.780289827E0
1.870982397E0,5.514351845E0,-1.701318622E0,-7.917929649E0,9.797763584E0
1.873427136E0,5.361129284E0,-1.691742182E0,-8.049604416E0,9.818341513E0
1.875871824E0,5.289306164E0,-1.703712702E0,-8.248315811E0,9.945557319E0
1.878317344E0,5.241424084E0,-1.682165861E0,-8.490118980E0,1.011851416E1
1.880762813E0,5.169600964E0,-1.698924422E0,-8.664889336E0,1.023188279E1
1.883207501E0,5.066655159E0,-1.737230062E0,-8.863598824E0,1.035627090E1
1.885652188E0,4.934979439E0,-1.780323863E0,-9.033579826E0,1.044648934E1
1.888097709E0,4.810486794E0,-1.821023583E0,-9.189196587E0,1.053082352E1
1.890543178E0,4.697963715E0,-1.864117384E0,-9.366358757E0,1.064304811E1
1.892987917E0,4.559106350E0,-1.876087785E0,-9.517188072E0,1.071830327E1
1.895432605E0,4.441795349E0,-1.854540944E0,-9.668016434E0,1.079997268E1
1.897878126E0,4.281390667E0,-1.806658983E0,-9.821238518E0,1.086512995E1
1.900323594E0,4.142532825E0,-1.768353343E0,-9.943337440E0,1.091593382E1
1.902768334E0,4.015645504E0,-1.706106782E0,-1.006304169E1,1.096818204E1
1.905213022E0,3.936640024E0,-1.660618901E0,-1.016120052E1,1.102292093E1
1.907658542E0,3.840876341E0,-1.593584180E0,-1.025696373E1,1.106784290E1
1.910104011E0,3.778629780E0,-1.550490379E0,-1.034075832E1,1.111815390E1
1.912548699E0,3.737929821E0,-1.483455539E0,-1.042933941E1,1.117782985E1
1.914993386E0,3.716383219E0,-1.418814898E0,-1.049876785E1,1.122713972E1
1.917438907E0,3.697230339E0,-1.394873977E0,-1.057537937E1,1.128954536E1
1.919884376E0,3.769053221E0,-1.354174376E0,-1.062565517E1,1.135535549E1
1.922329115E0,3.824117422E0,-1.291927695E0,-1.070944881E1,1.144487855E1
1.924773803E0,3.903122663E0,-1.291927695E0,-1.071423721E1,1.147598897E1
1.927219324E0,3.977339983E0,-1.277563095E0,-1.073817825E1,1.152214707E1
1.929664792E0,4.051557064E0,-1.272774935E0,-1.075254345E1,1.156080712E1
1.932109532E0,4.140138626E0,-1.279957175E0,-1.071902466E1,1.156185659E1
1.934554219E0,4.204779625E0,-1.303898215E0,-1.069029617E1,1.156126094E1
1.936999688E0,4.283784866E0,-1.325445056E0,-1.063523197E1,1.154191390E1
1.939445209E0,4.360395432E0,-1.325445056E0,-1.058256245E1,1.152217344E1
1.941889897E0,4.458554268E0,-1.358962417E0,-1.052749729E1,1.151319609E1
1.944334584E0,4.578258514E0,-1.404450297E0,-1.045567417E1,1.150017626E1
1.946780105E0,4.688387871E0,-1.411632657E0,-1.040300369E1,1.149765948E1
1.949225574E0,4.798516273E0,-1.449938178E0,-1.030963421E1,1.146370955E1
1.951670313E0,4.913432598E0,-1.519367099E0,-1.019950581E1,1.142279366E1
1.954115001E0,5.002014160E0,-1.591190100E0,-1.007261944E1,1.135824344E1
1.956560522E0,5.102566719E0,-1.653436542E0,-9.897849083E0,1.125777314E1
1.959005990E0,5.183965683E0,-1.732441783E0,-9.699139595E0,1.113320096E1
1.961450678E0,5.251000881E0,-1.821023583E0,-9.498035431E0,1.100462694E1
1.963895365E0,5.306064606E0,-1.897634745E0,-9.251442909E0,1.083256826E1
1.966340886E0,5.320429802E0,-1.974245787E0,-8.997668266E0,1.063779366E1
1.968786407E0,5.356341362E0,-2.079586267E0,-8.717558861E0,1.044082872E1
1.971231094E0,5.385070324E0,-2.168168068E0,-8.423084259E0,1.022977437E1
1.973675782E0,5.380281925E0,-2.261537790E0,-8.142974854E0,1.001848423E1
1.976121303E0,5.404222965E0,-2.369272232E0,-7.867653847E0,9.834584578E0
1.978566772E0,5.418587685E0,-2.443489313E0,-7.621061802E0,9.665004682E0
1.981011511E0,5.430558205E0,-2.529676914E0,-7.374469757E0,9.501212128E0
1.983456199E0,5.444922447E0,-2.625440836E0,-7.175759315E0,9.382517881E0
1.985901719E0,5.519139767E0,-2.702052116E0,-6.993807793E0,9.309959014E0
1.988347188E0,5.610115528E0,-2.795421839E0,-6.881285191E0,9.308053791E0
1.990791876E0,5.657997608E0,-2.905550241E0,-6.771156788E0,9.289979730E0
1.993236563E0,5.708273888E0,-3.001314402E0,-6.665816307E0,9.274987113E0
1.995682084E0,5.746579170E0,-3.094684124E0,-6.570052147E0,9.260984138E0
1.998127605E0,5.847131252E0,-3.211995125E0,-6.519776344E0,9.328094132E0
2.000572292E0,5.909377575E0,-3.305364847E0,-6.491046906E0,9.379758527E0
2.003016980E0,5.978806496E0,-3.372399569E0,-6.452741623E0,9.421097623E0
2.005462501E0,6.053023815E0,-3.487316370E0,-6.419224262E0,9.487197315E0
2.007907969E0,6.108088017E0,-3.599838972E0,-6.316277504E0,9.495416860E0
2.010352709E0,6.203852177E0,-3.709967613E0,-6.215725422E0,9.533461283E0
2.012797397E0,6.273280621E0,-3.796154976E0,-6.107991219E0,9.543186002E0
2.015242917E0,6.361862659E0,-3.865584135E0,-6.007439137E0,9.565843516E0
2.017688386E0,6.457626343E0,-3.923042297E0,-5.940403938E0,9.611430580E0
2.020133074E0,6.562966824E0,-3.946983337E0,-5.806334496E0,9.610657171E0
2.022577761E0,6.644366264E0,-3.956559896E0,-5.727329731E0,9.623111509E0
2.025023282E0,6.701824665E0,-3.944589376E0,-5.631565571E0,9.601498319E0
2.027468751E0,6.766465187E0,-3.937406778E0,-5.557348728E0,9.600643111E0
2.029913490E0,6.802376747E0,-3.903889656E0,-5.495101929E0,9.576472684E0
2.032358178E0,6.799982548E0,-3.927830458E0,-5.444825649E0,9.555822367E0
2.034803699E0,6.771253109E0,-3.930224657E0,-5.387367725E0,9.503697466E0
2.037249167E0,6.773647785E0,-3.968530416E0,-5.351456165E0,9.501032632E0
2.039693907E0,6.776041508E0,-4.011623859E0,-5.368214607E0,9.530246197E0
2.042138594E0,6.766465187E0,-4.045141220E0,-5.384973049E0,9.547049458E0
2.044584115E0,6.792799950E0,-4.114570141E0,-5.396943569E0,9.602021583E0
2.047029584E0,6.938840389E0,-4.179210663E0,-5.478343010E0,9.778831722E0
2.049474272E0,7.089668751E0,-4.215122223E0,-5.581289768E0,9.958988595E0
2.051918959E0,7.314713478E0,-4.265398502E0,-5.665082932E0,1.018782716E1
2.054364480E0,7.532576561E0,-4.339615345E0,-5.717752934E0,1.040503098E1
2.056809949E0,7.716922283E0,-4.358768463E0,-5.760846615E0,1.057057736E1
2.059254688E0,7.963514805E0,-4.418620110E0,-5.736905575E0,1.076354297E1
2.061699376E0,8.157436371E0,-4.421014786E0,-5.638747692E0,1.085746819E1
2.064144897E0,8.372904778E0,-4.452137947E0,-5.511860847E0,1.096848562E1
2.066590365E0,8.583585739E0,-4.449743748E0,-5.317938805E0,1.103442960E1
2.069035105E0,8.796660423E0,-4.456926346E0,-5.092893124E0,1.109878315E1
2.071479792E0,8.961853981E0,-4.425802708E0,-4.831936836E0,1.110180931E1
2.073925313E0,9.131834984E0,-4.404255867E0,-4.532674313E0,1.110553989E1
2.076370782E0,9.268298149E0,-4.363556385E0,-4.240593910E0,1.108713721E1
2.078815469E0,9.450249672E0,-4.358768463E0,-3.917390823E0,1.111989354E1
2.081260157E0,9.536437035E0,-4.344403267E0,-3.658827782E0,1.109975188E1
2.083705678E0,9.627412796E0,-4.318068504E0,-3.369142056E0,1.107627694E1
2.086151147E0,9.672901154E0,-4.289339542E0,-3.168037891E0,1.104535715E1
2.088595886E0,9.708811760E0,-4.296521187E0,-2.945386410E0,1.101800441E1
2.091040574E0,9.708811760E0,-4.286945343E0,-2.799346447E0,1.097612257E1
2.093486094E0,9.715994835E0,-4.289339542E0,-2.686823845E0,1.095527324E1
2.095931563E0,9.672901154E0,-4.298915863E0,-2.593453884E0,1.089824286E1
2.098376303E0,9.625019073E0,-4.334827423E0,-2.547966480E0,1.085927503E1
2.100820990E0,9.541224480E0,-4.370738506E0,-2.516842842E0,1.079225730E1
2.103266459E0,9.478979111E0,-4.404255867E0,-2.509660721E0,1.074927494E1
2.105711980E0,9.390397072E0,-4.452137947E0,-2.545571804E0,1.069958061E1
2.108156667E0,9.304209709E0,-4.523961067E0,-2.634153843E0,1.067582824E1
2.110601355E0,9.146198273E0,-4.602966309E0,-2.713159084E0,1.059251971E1
2.113046876E0,8.957064629E0,-4.698730469E0,-2.828075886E0,1.050262291E1
2.115492344E0,8.732019424E0,-4.780129433E0,-2.971721649E0,1.038888493E1
2.117937084E0,8.521338463E0,-4.842375755E0,-3.170432091E0,1.030113837E1
2.120381772E0,8.377692223E0,-4.875893116E0,-3.440965176E0,1.028592738E1
2.122827292E0,8.257987976E0,-4.890257835E0,-3.745015621E0,1.030214197E1
2.125272761E0,8.157436371E0,-4.868711472E0,-4.075401306E0,1.033716670E1
2.127717449E0,8.066460609E0,-4.844770432E0,-4.372269630E0,1.037575679E1
2.130162136E0,8.052095413E0,-4.825617313E0,-4.712231636E0,1.050371125E1
2.132607657E0,8.025760651E0,-4.768158913E0,-5.004311562E0,1.059203982E1
2.135053178E0,8.044913292E0,-4.715488911E0,-5.301179886E0,1.072655461E1
2.137497865E0,8.049701691E0,-4.681971550E0,-5.569319248E0,1.085061619E1
2.139942553E0,8.095190048E0,-4.612542152E0,-5.803940773E0,1.097694746E1
2.142388074E0,8.054490089E0,-4.540719986E0,-5.957163334E0,1.099912467E1
2.144833542E0,8.040124893E0,-4.432985306E0,-6.062503338E0,1.100222313E1
2.147278282E0,7.965908527E0,-4.325250626E0,-6.151084900E0,1.095442089E1
2.149722969E0,7.867750645E0,-4.179210663E0,-6.158267021E0,1.083012256E1
2.152168490E0,7.719316483E0,-4.009229660E0,-6.129538059E0,1.064109986E1
2.154613959E0,7.561306000E0,-3.827278376E0,-6.079262257E0,1.042970938E1
2.157058647E0,7.348231316E0,-3.654903412E0,-5.940403938E0,1.013129910E1
2.159503334E0,7.096850872E0,-3.506469011E0,-5.768029213E0,9.794425875E0
2.161948855E0,6.814347267E0,-3.331700087E0,-5.533407688E0,9.389044402E0
2.164394324E0,6.483961582E0,-3.161719084E0,-5.253298283E0,8.923865094E0
2.166839063E0,6.151181698E0,-3.037225723E0,-4.954035759E0,8.461929253E0
2.169283751E0,5.804037571E0,-2.879215240E0,-4.640408516E0,7.969323919E0
2.171729272E0,5.471257687E0,-2.749933958E0,-4.379452229E0,7.528372950E0
2.174174740E0,5.200724602E0,-2.625440836E0,-4.171165466E0,7.165130656E0
2.176619480E0,4.970890999E0,-2.534465075E0,-3.984425545E0,6.856304942E0
2.179064167E0,4.817668438E0,-2.450671673E0,-3.905420303E0,6.668435242E0
2.181509688E0,4.753028393E0,-2.393213272E0,-3.917390823E0,6.607927022E0
2.183955157E0,4.755422115E0,-2.366878033E0,-4.015548706E0,6.658887484E0
2.186399844E0,4.832033157E0,-2.314208031E0,-4.178347588E0,6.794313196E0
2.188844532E0,4.973285198E0,-2.342936993E0,-4.408181190E0,7.046629040E0
2.191290053E0,5.152842522E0,-2.342936993E0,-4.688290596E0,7.349912144E0
2.193735574E0,5.341976166E0,-2.366878033E0,-4.954035759E0,7.660371484E0
2.196180261E0,5.590962887E0,-2.400395632E0,-5.234145164E0,8.026022726E0
2.198624949E0,5.756155491E0,-2.469824314E0,-5.521437168E0,8.349827937E0
2.201070469E0,5.911771774E0,-2.503341913E0,-5.768029213E0,8.630523000E0
2.203515938E0,6.053023815E0,-2.611076355E0,-5.966739178E0,8.891501192E0
2.205960678E0,6.103299618E0,-2.649381876E0,-6.198966980E0,9.093771614E0
2.208405365E0,6.177516460E0,-2.728387117E0,-6.388100624E0,9.295893473E0
2.210850886E0,6.246945858E0,-2.816968918E0,-6.560475826E0,9.486806075E0
2.213296355E0,6.321162701E0,-2.840909719E0,-6.749609470E0,9.673938904E0
2.215741042E0,6.409744740E0,-2.879215240E0,-6.924378395E0,9.865177352E0
2.218185730E0,6.481567383E0,-2.886397600E0,-7.113512516E0,1.004709247E1
2.220631251E0,6.517478466E0,-2.895974159E0,-7.288281441E0,1.019721718E1
2.223076719E0,6.522267342E0,-2.860062599E0,-7.431927681E0,1.029337060E1
2.225521459E0,6.462414742E0,-2.843303919E0,-7.527691841E0,1.032052934E1
2.227966147E0,6.318768501E0,-2.812180519E0,-7.621061802E0,1.029153913E1
2.230411667E0,6.124846458E0,-2.737963676E0,-7.656972885E0,1.018034494E1
2.232857136E0,5.883042812E0,-2.654170036E0,-7.690490723E0,1.003984357E1
2.235301876E0,5.581386089E0,-2.584741116E0,-7.656972885E0,9.821506558E0
2.237746563E0,5.253394604E0,-2.505735874E0,-7.609091282E0,9.579934095E0
2.240192084E0,4.963708878E0,-2.400395632E0,-7.532480240E0,9.334803885E0
2.242637553E0,4.705146313E0,-2.335754871E0,-7.419957161E0,9.091199971E0
2.245082240E0,4.539953232E0,-2.242385149E0,-7.321799278E0,8.902146436E0
2.247526928E0,4.468130112E0,-2.153803349E0,-7.226035118E0,8.764624298E0
2.249972449E0,4.468130112E0,-2.043674707E0,-7.137453556E0,8.665104516E0
2.252417917E0,4.527982712E0,-1.974245787E0,-7.063236713E0,8.619140719E0
2.254862657E0,4.621352673E0,-1.919181585E0,-7.000989914E0,8.605464442E0
2.257307344E0,4.741057873E0,-1.837782264E0,-6.989019394E0,8.643000954E0
2.259752865E0,4.851186275E0,-1.811447024E0,-6.977049351E0,8.688760915E0
2.262198334E0,4.949344158E0,-1.782717943E0,-7.041689396E0,8.789737221E0
2.264643022E0,5.018773079E0,-1.737230062E0,-7.137453556E0,8.896588940E0
2.267087761E0,5.047502041E0,-1.734835982E0,-7.249976158E0,9.002726644E0
2.269533282E0,5.112142563E0,-1.725259542E0,-7.381651402E0,9.143265253E0
2.271978751E0,5.131295681E0,-1.718077302E0,-7.561209202E0,9.298057301E0
2.274423438E0,5.188754082E0,-1.751594663E0,-7.726402283E0,9.470403635E0
2.276868126E0,5.253394604E0,-1.756382823E0,-7.870047569E0,9.623964060E0
2.279313647E0,5.358735085E0,-1.758776903E0,-8.023269653E0,9.807252104E0
2.281759115E0,5.456892967E0,-1.749200583E0,-8.128610611E0,9.945435838E0
2.284203855E0,5.559839249E0,-1.713289022E0,-8.248315811E0,1.009365570E1
2.286648542E0,5.646027088E0,-1.667801261E0,-8.384778976E0,1.024517942E1
2.289094063E0,5.725032330E0,-1.605554700E0,-8.518848419E0,1.038867554E1
2.291539532E0,5.808825493E0,-1.548096299E0,-8.667283058E0,1.054802595E1
2.293984219E0,5.885436535E0,-1.481061459E0,-8.839657784E0,1.072247434E1
2.296428907E0,5.974018574E0,-1.435573578E0,-9.002455711E0,1.089926503E1
2.298874428E0,6.155970097E0,-1.366144776E0,-9.210742950E0,1.116244172E1
2.301319949E0,6.309192181E0,-1.299109936E0,-9.404664993E0,1.139918051E1
2.303764636E0,6.515084743E0,-1.263198614E0,-9.600980759E0,1.167136802E1
2.306209324E0,6.680277824E0,-1.210528374E0,-9.782933235E0,1.190786603E1
2.308654844E0,6.859835148E0,-1.186587334E0,-9.976855278E0,1.216564708E1
2.311100313E0,6.972357750E0,-1.150675774E0,-1.009656048E1,1.232389390E1
2.313545053E0,7.003480434E0,-1.143493533E0,-1.018992901E1,1.241736562E1
2.315989740E0,6.950810432E0,-1.131523132E0,-1.022105312E1,1.241225351E1
2.318435261E0,6.819135189E0,-1.133917212E0,-1.014923000E1,1.227979001E1
2.320880730E0,6.594089985E0,-1.143493533E0,-9.960096359E0,1.199971332E1
2.323325417E0,6.354680061E0,-1.165040493E0,-9.708716393E0,1.166183742E1
2.325770105E0,6.081752777E0,-1.181799173E0,-9.392695427E0,1.125198176E1
2.328215626E0,5.832766533E0,-1.184193254E0,-9.069491386E0,1.084800226E1
2.330661147E0,5.619691849E0,-1.232075214E0,-8.767834663E0,1.048684273E1
2.333105834E0,5.459287167E0,-1.299109936E0,-8.475754738E0,1.016513263E1
2.335550522E0,5.341976166E0,-1.351780176E0,-8.214797974E0,9.891760447E0
2.337996042E0,5.303670883E0,-1.440361857E0,-8.049604416E0,9.746778871E0
2.340441511E0,5.318035126E0,-1.528943419E0,-7.937082767E0,9.675559335E0
2.342886251E0,5.385070324E0,-1.622313380E0,-7.941870689E0,9.731607942E0
2.345330938E0,5.447316647E0,-1.739624262E0,-7.987358570E0,9.823311465E0
2.347776459E0,5.488016129E0,-1.813841224E0,-8.102275848E0,9.952648639E0
2.350221928E0,5.471257687E0,-1.943122625E0,-8.210010529E0,1.005557851E1
2.352666615E0,5.406617165E0,-2.046068907E0,-8.348867416E0,1.015487539E1
2.355111303E0,5.303670883E0,-2.132256508E0,-8.497302055E0,1.024107342E1
2.357556824E0,5.193542004E0,-2.237596750E0,-8.640948296E0,1.032694075E1
2.360002292E0,5.040319920E0,-2.307025671E0,-8.741499901E0,1.035089430E1
2.362447032E0,4.942161560E0,-2.378848553E0,-8.801352501E0,1.037052010E1
2.364891719E0,4.820062637E0,-2.488977432E0,-8.796564102E0,1.033477394E1
2.367337240E0,4.705146313E0,-2.534465075E0,-8.772623062E0,1.027233325E1
2.369782709E0,4.580653191E0,-2.613470316E0,-8.676858902E0,1.015384120E1
2.372227449E0,4.448977470E0,-2.697263718E0,-8.607430458E0,1.005765834E1
2.374672136E0,4.267025948E0,-2.761904478E0,-8.528425217E0,9.928225595E0
2.377117657E0,4.089862823E0,-2.826545000E0,-8.482936859E0,9.832423522E0
2.379563126E0,3.984522104E0,-2.862456560E0,-8.449419975E0,9.770505201E0
2.382007813E0,3.931852102E0,-2.848092079E0,-8.473361015E0,9.765702040E0
2.384452501E0,3.883970022E0,-2.824151039E0,-8.511666298E0,9.772896981E0
2.386898022E0,3.874393702E0,-2.783451319E0,-8.559548378E0,9.799203857E0
2.389343542E0,3.905516863E0,-2.675716877E0,-8.619400978E0,9.833951189E0
2.391788230E0,3.991704226E0,-2.589529276E0,-8.667283058E0,9.887424341E0
2.394232917E0,4.109015465E0,-2.505735874E0,-8.796564102E0,1.002707636E1
2.396678438E0,4.235902786E0,-2.376454592E0,-8.954574585E0,1.018699243E1
2.399123907E0,4.420248032E0,-2.287872791E0,-9.162860870E0,1.042741454E1
2.401568647E0,4.606987953E0,-2.216049910E0,-9.330448151E0,1.063919536E1
2.404013334E0,4.832033157E0,-2.170562029E0,-9.469305992E0,1.085023686E1
2.406458855E0,5.009196758E0,-2.144227028E0,-9.605769157E0,1.104357564E1
2.408904324E0,5.167207241E0,-2.129862547E0,-9.672803879E0,1.117136876E1
2.411349011E0,5.298882484E0,-2.096344948E0,-9.670410156E0,1.122451114E1
2.413793699E0,5.330005646E0,-2.055645227E0,-9.636893272E0,1.120287237E1
2.416239219E0,5.318035126E0,-2.017339706E0,-9.608162880E0,1.116548033E1
2.418684688E0,5.253394604E0,-1.964669466E0,-9.495640755E0,1.102838494E1
2.421129428E0,5.215089321E0,-1.897634745E0,-9.390299797E0,1.090760764E1
2.423574115E0,5.126507759E0,-1.847358584E0,-9.282566071E0,1.076382127E1
2.426019636E0,5.081019878E0,-1.773141623E0,-9.155678749E0,1.062013407E1
2.428465105E0,5.013984680E0,-1.761171103E0,-9.021609306E0,1.047049189E1
2.430909844E0,4.978073120E0,-1.703712702E0,-8.909087181E0,1.034677164E1
2.433354532E0,4.968497276E0,-1.718077302E0,-8.810929298E0,1.026012816E1
2.435800001E0,5.013984680E0,-1.710894942E0,-8.734316826E0,1.021545370E1
2.438245522E0,5.049896240E0,-1.753988862E0,-8.669676781E0,1.018534361E1
2.440690209E0,5.090596199E0,-1.794688463E0,-8.619400978E0,1.017001227E1
2.443134897E0,5.176783562E0,-1.842570424E0,-8.571518898E0,1.018160547E1
2.445580417E0,5.260577202E0,-1.914393306E0,-8.485331535E0,1.016560010E1
2.448025886E0,5.330005646E0,-2.048463106E0,-8.470966339E0,1.021579326E1
2.450470626E0,5.449710846E0,-2.163379908E0,-8.372808456E0,1.022171621E1
2.452915313E0,5.559839249E0,-2.283084869E0,-8.317744255E0,1.026202507E1
2.455360834E0,5.677150249E0,-2.414760113E0,-8.253103256E0,1.030411640E1
2.457806303E0,5.849524975E0,-2.553617716E0,-8.190856934E0,1.038402827E1
2.460251042E0,6.017112255E0,-2.666140556E0,-8.111851692E0,1.044586441E1
2.462695730E0,6.189486980E0,-2.785845280E0,-8.020875931E0,1.050738472E1
2.465141199E0,6.364256859E0,-2.910338640E0,-7.908353806E0,1.056010872E1
2.467586719E0,6.522267342E0,-3.008496523E0,-7.733583927E0,1.055458872E1
2.470031407E0,6.661124706E0,-3.094684124E0,-7.589938164E0,1.056195122E1
2.472476094E0,6.761677265E0,-3.140172005E0,-7.388834000E0,1.049646738E1
2.474921615E0,6.819135189E0,-3.216783285E0,-7.192518234E0,1.042020240E1
2.477367084E0,6.826317787E0,-3.245512247E0,-7.010566711E0,1.030921965E1
2.479811824E0,6.788012028E0,-3.262271166E0,-6.787915230E0,1.013880238E1
2.482256511E0,6.749706745E0,-3.279029846E0,-6.574840546E0,9.976928690E0
2.484702032E0,6.709006786E0,-3.300576687E0,-6.373735905E0,9.824921776E0
2.487147501E0,6.656336784E0,-3.346064568E0,-6.215725422E0,9.702484733E0
2.489592188E0,6.586907864E0,-3.350852728E0,-6.045744419E0,9.548119961E0
2.492036876E0,6.510296822E0,-3.362823248E0,-5.866187096E0,9.386410173E0
2.494482397E0,6.505507946E0,-3.422675848E0,-5.724935532E0,9.317254447E0
2.496927917E0,6.541419506E0,-3.477740049E0,-5.650718212E0,9.317481490E0
2.499372605E0,6.685065746E0,-3.508863211E0,-5.576500893E0,9.386138038E0
2.501817292E0,6.835894108E0,-3.568715811E0,-5.557348728E0,9.505225178E0
2.504262813E0,7.080091953E0,-3.609415293E0,-5.533407688E0,9.683707011E0
2.506708282E0,7.360201836E0,-3.666873932E0,-5.519042969E0,9.903452468E0
2.509153022E0,7.649887562E0,-3.738696814E0,-5.454401970E0,1.011183141E1
2.511597709E0,7.927603245E0,-3.777002335E0,-5.394549847E0,1.030600834E1
2.514043230E0,8.281929016E0,-3.839248896E0,-5.262874126E0,1.053698365E1
2.516488699E0,8.631467819E0,-3.879948616E0,-5.104863644E0,1.075248208E1
2.518933386E0,8.961853981E0,-3.899101257E0,-4.925306797E0,1.094424344E1
2.521378074E0,9.292238235E0,-3.901495457E0,-4.661955833E0,1.110410692E1
2.523823594E0,9.584319115E0,-3.925436497E0,-4.362693310E0,1.123838589E1
2.526269115E0,9.874004364E0,-3.906283617E0,-4.025125027E0,1.135590795E1
2.528713803E0,1.010623264E1,-3.954165459E0,-3.637281418E0,1.144557464E1
2.531158490E0,1.026184845E1,-3.956559896E0,-3.211131573E0,1.145736732E1
2.533604011E0,1.035043049E1,-3.966135979E0,-2.756252766E0,1.142184640E1
2.536049480E0,1.037197781E1,-3.985288858E0,-2.298980236E0,1.134661892E1
2.538494219E0,1.035043049E1,-4.004441738E0,-1.896771431E0,1.125898338E1
2.540938907E0,1.025227261E1,-4.002047539E0,-1.501745105E0,1.110768727E1
2.543384428E0,1.015172100E1,-4.018805981E0,-1.195300341E0,1.098348686E1
2.545829897E0,1.004638004E1,-4.040352821E0,-9.343436956E-1,1.086863382E1
2.548274584E0,9.929068565E0,-4.037959099E0,-7.523921132E-1,1.074512029E1
2.550719272E0,9.830910683E0,-4.057111740E0,-6.901455522E-1,1.065754481E1
2.553164792E0,9.718388557E0,-4.076264381E0,-6.877515316E-1,1.056106101E1
2.555610313E0,9.620230675E0,-4.107388020E0,-8.026682734E-1,1.049112725E1
2.558055001E0,9.550801277E0,-4.162452221E0,-9.870138168E-1,1.046508527E1
2.560499688E0,9.447855949E0,-4.215122223E0,-1.269517541E0,1.042309513E1
2.562945209E0,9.344908714E0,-4.286945343E0,-1.602297306E0,1.040541090E1
2.565390678E0,9.253933907E0,-4.325250626E0,-1.985352993E0,1.040599405E1
2.567835417E0,9.158169746E0,-4.363556385E0,-2.445020199E0,1.043507648E1
2.570280105E0,9.048040390E0,-4.411438465E0,-2.899898529E0,1.047555420E1
2.572725626E0,8.964247704E0,-4.459320545E0,-3.388295174E0,1.056994895E1
2.575171094E0,8.904395103E0,-4.485655308E0,-3.888661385E0,1.070191773E1
2.577615782E0,8.863695145E0,-4.490443230E0,-4.374663830E0,1.085665030E1
2.580060469E0,8.849330902E0,-4.483261108E0,-4.860665798E0,1.104700682E1
2.582505990E0,8.799055099E0,-4.471291065E0,-5.298785686E0,1.120236333E1
2.584951459E0,8.775114059E0,-4.428196907E0,-5.732117653E0,1.137843255E1
2.587396199E0,8.712866783E0,-4.363556385E0,-6.088838577E0,1.149037106E1
2.589840886E0,8.609920502E0,-4.308491707E0,-6.416830063E0,1.157020051E1
2.592286407E0,8.490215302E0,-4.255821705E0,-6.605963707E0,1.156868751E1
2.594731876E0,8.332205772E0,-4.160058022E0,-6.763974190E0,1.151012957E1
2.597176615E0,8.133495331E0,-4.069082260E0,-6.847767830E0,1.138433577E1
2.599621303E0,7.886903286E0,-3.980500937E0,-6.883678913E0,1.119967261E1
2.602066824E0,7.683404922E0,-3.841643095E0,-6.876497269E0,1.100359703E1
2.604512292E0,7.465542316E0,-3.712361574E0,-6.845373631E0,1.078772871E1
2.606956980E0,7.290772438E0,-3.559139252E0,-6.744821548E0,1.055061385E1
2.609401667E0,7.175856113E0,-3.374793768E0,-6.639481068E0,1.034238139E1
2.611847188E0,7.113609791E0,-3.216783285E0,-6.538928986E0,1.018374839E1
2.614292657E0,7.106427193E0,-3.030043602E0,-6.412041664E0,1.003975846E1
2.616737397E0,7.077698231E0,-2.884003639E0,-6.304306984E0,9.907349584E0
2.619182084E0,7.123185635E0,-2.747539759E0,-6.177420139E0,9.820858816E0
2.621627605E0,7.192614555E0,-2.601499796E0,-6.081655979E0,9.771798441E0
2.624073074E0,7.209372997E0,-2.479400873E0,-5.928433418E0,9.657577880E0
2.626517813E0,7.199797153E0,-2.390819073E0,-5.808728695E0,9.554811560E0
2.628962501E0,7.144732475E0,-2.311813831E0,-5.672265053E0,9.410965740E0
2.631407969E0,7.039391994E0,-2.271114349E0,-5.540589809E0,9.241706308E0
2.633853490E0,6.888564110E0,-2.266326189E0,-5.425673008E0,9.056846994E0
2.636298178E0,6.682671547E0,-2.285478830E0,-5.258086205E0,8.805054402E0
2.638742865E0,6.471991062E0,-2.340543032E0,-5.162322044E0,8.603160982E0
2.641188386E0,6.258916378E0,-2.419548273E0,-5.066557884E0,8.408225548E0
2.643633855E0,6.043447018E0,-2.522494555E0,-5.016282082E0,8.249200965E0
2.646078594E0,5.895013332E0,-2.639805317E0,-4.997128963E0,8.166458974E0
2.648523282E0,5.737002850E0,-2.757116318E0,-5.004311562E0,8.096791111E0
2.650968803E0,5.653209209E0,-2.869638920E0,-5.056981564E0,8.109664878E0
2.653414272E0,5.571809769E0,-2.977373362E0,-5.126410484E0,8.135717589E0
2.655859011E0,5.576598167E0,-3.058772802E0,-5.272450447E0,8.261553843E0
2.658303699E0,5.569415569E0,-3.192842245E0,-5.440037727E0,8.414668256E0
2.660749167E0,5.562233448E0,-3.298182487E0,-5.619595051E0,8.567163894E0
2.663194688E0,5.619691849E0,-3.410705328E0,-5.823093414E0,8.781928275E0
2.665639376E0,5.648421288E0,-3.518439531E0,-6.005044937E0,8.963517416E0
2.668084063E0,5.684332848E0,-3.609415293E0,-6.170237541E0,9.132981441E0
2.670529584E0,5.717849731E0,-3.707573652E0,-6.342612743E0,9.309599581E0
2.672975053E0,5.744184971E0,-3.808125496E0,-6.459923744E0,9.446062436E0
2.675419792E0,5.789672852E0,-3.844037056E0,-6.584416389E0,9.573477519E0
2.677864480E0,5.851919651E0,-3.889525175E0,-6.682575226E0,9.696916074E0
2.680310001E0,5.914165974E0,-3.915860176E0,-6.742427349E0,9.786298925E0
2.682755469E0,5.978806496E0,-3.913465977E0,-6.819038391E0,9.877278352E0
2.685200157E0,6.079358578E0,-3.891919136E0,-6.850161552E0,9.951399327E0
2.687644844E0,6.134423256E0,-3.853613615E0,-6.878890991E0,9.990026419E0
2.690090365E0,6.246945858E0,-3.808125496E0,-6.888467312E0,1.004873794E1
2.692535886E0,6.333133221E0,-3.714755774E0,-6.929167271E0,1.009561023E1
2.694980574E0,6.421715260E0,-3.638144493E0,-6.933955193E0,1.012690757E1
2.697425261E0,6.512690544E0,-3.554351091E0,-6.931560993E0,1.015357511E1
2.699870782E0,6.615637302E0,-3.415493250E0,-6.967472553E0,1.019695665E1
2.702316251E0,6.668307304E0,-3.293394327E0,-7.000989914E0,1.021404074E1
2.704760990E0,6.661124706E0,-3.173689365E0,-7.017748833E0,1.018291143E1
2.707205678E0,6.539025784E0,-3.025255442E0,-7.000989914E0,1.004613799E1
2.709651199E0,6.414532661E0,-2.888791561E0,-7.010566711E0,9.931736583E0
2.712096667E0,6.242157459E0,-2.737963676E0,-6.993807793E0,9.765977794E0
2.714541355E0,6.076964855E0,-2.649381876E0,-7.010566711E0,9.648666840E0
2.716986042E0,5.892619133E0,-2.536859035E0,-6.986625671E0,9.485333536E0
2.719431563E0,5.748973370E0,-2.424336672E0,-6.953108311E0,9.342045723E0
2.721877084E0,5.646027088E0,-2.342936993E0,-6.912408352E0,9.227587163E0
2.724321772E0,5.617297649E0,-2.249567270E0,-6.862132072E0,9.148958540E0
2.726766459E0,5.578992367E0,-2.196897030E0,-6.742427349E0,9.022850932E0
2.729211980E0,5.507169247E0,-2.151409388E0,-6.608357430E0,8.867235385E0
2.731657449E0,5.468863487E0,-2.122680187E0,-6.452741623E0,8.720786287E0
2.734102188E0,5.449710846E0,-2.113103628E0,-6.342612743E0,8.625154588E0
2.736546876E0,5.385070324E0,-2.127468348E0,-6.249243259E0,8.519280796E0
2.738992397E0,5.373099804E0,-2.146620989E0,-6.242060661E0,8.511257514E0
2.741437865E0,5.432951927E0,-2.156197548E0,-6.318671703E0,8.607657440E0
2.743882553E0,5.478440285E0,-2.170562029E0,-6.498229027E0,8.772207702E0
2.746327240E0,5.559839249E0,-2.204079628E0,-6.689757347E0,8.973440413E0
2.748772761E0,5.650815010E0,-2.237596750E0,-6.941137791E0,9.225938615E0
2.751218282E0,5.720243931E0,-2.256749630E0,-7.218852997E0,9.482929300E0
2.753662969E0,5.804037571E0,-2.244779110E0,-7.501356602E0,9.746601266E0
2.756107657E0,5.799249172E0,-2.223232269E0,-7.786254406E0,9.959910158E0
2.758553178E0,5.792067051E0,-2.182532549E0,-8.035240173E0,1.014280896E1
2.760998647E0,5.715455532E0,-2.134650469E0,-8.250709534E0,1.026145079E1
2.763443386E0,5.612509727E0,-2.046068907E0,-8.432661057E0,1.033423611E1
2.765888074E0,5.476045609E0,-1.971851707E0,-8.554759979E0,1.034694124E1
2.768333594E0,5.344370842E0,-1.911999345E0,-8.648130417E0,1.034447683E1
2.770779063E0,5.227059841E0,-1.847358584E0,-8.688830376E0,1.030682597E1
2.773223751E0,5.128901482E0,-1.773141623E0,-8.686434746E0,1.024225611E1
2.775668438E0,5.107354641E0,-1.698924422E0,-8.691224098E0,1.022295417E1
2.778113959E0,5.100172043E0,-1.641466022E0,-8.707982063E0,1.022424164E1
2.780559428E0,5.155236721E0,-1.560066819E0,-8.727134705E0,1.025539635E1
2.783004167E0,5.270153522E0,-1.488243818E0,-8.818111420E0,1.038019638E1
2.785448855E0,5.363523006E0,-1.428391337E0,-8.925845146E0,1.051087020E1
2.787894376E0,5.464075565E0,-1.382903457E0,-9.055127144E0,1.066601478E1
2.790339844E0,5.581386089E0,-1.318262815E0,-9.210742950E0,1.085022918E1
2.792784584E0,5.679543972E0,-1.258410335E0,-9.371148109E0,1.102992444E1
2.795229272E0,5.787278652E0,-1.217710733E0,-9.531552315E0,1.121721459E1
2.797674792E0,5.899801254E0,-1.167434573E0,-9.696744919E0,1.141040842E1
2.800120261E0,6.045841217E0,-1.143493533E0,-9.787720680E0,1.156110936E1
2.802564949E0,6.127240658E0,-1.141099453E0,-9.864332199E0,1.166834332E1
2.805009636E0,6.201457500E0,-1.153069973E0,-9.878697395E0,1.172076396E1
2.807455157E0,6.261310101E0,-1.184193254E0,-9.826025963E0,1.171140914E1
2.809900626E0,6.256522179E0,-1.198557854E0,-9.696744919E0,1.160204606E1
2.812345365E0,6.232581139E0,-1.212922454E0,-9.569858551E0,1.148470466E1
2.814790053E0,6.127240658E0,-1.246439815E0,-9.383117676E0,1.127561917E1
2.817235574E0,6.026688576E0,-1.241651535E0,-9.165255547E0,1.103922927E1
2.819681042E0,5.909377575E0,-1.251228094E0,-8.992879868E0,1.083319913E1
2.822125782E0,5.806431770E0,-1.253622055E0,-8.839657784E0,1.065015342E1
2.824570469E0,5.703485012E0,-1.267986655E0,-8.724740982E0,1.050041126E1
2.827015938E0,5.629268169E0,-1.279957175E0,-8.648130417E0,1.039793779E1
2.829461459E0,5.523927689E0,-1.303898215E0,-8.576307297E0,1.028430720E1
2.831906147E0,5.394646645E0,-1.366144776E0,-8.494908333E0,1.015539421E1
2.834350834E0,5.303670883E0,-1.414026737E0,-8.461390495E0,1.008580813E1
2.836796355E0,5.224665642E0,-1.507396579E0,-8.430267334E0,1.003188830E1
2.839241824E0,5.085807800E0,-1.586401820E0,-8.403932571E0,9.950286146E0
2.841686563E0,4.894279957E0,-1.667801261E0,-8.346473694E0,9.818307413E0
2.844131251E0,4.664446831E0,-1.789900184E0,-8.281832695E0,9.672102134E0
2.846576772E0,4.470524788E0,-1.842570424E0,-8.226768494E0,9.542556130E0
2.849022240E0,4.322090149E0,-1.897634745E0,-8.207615852E0,9.468180335E0
2.851466980E0,4.168868065E0,-1.907211065E0,-8.260286331E0,9.447181869E0
2.853911667E0,4.013251781E0,-1.880875945E0,-8.339291573E0,9.443922284E0
2.856357136E0,3.965369463E0,-1.849752665E0,-8.463784218E0,9.527926489E0
2.858802657E0,3.864817381E0,-1.830599904E0,-8.652917862E0,9.651989273E0
2.861247344E0,3.850452662E0,-1.782717943E0,-8.846839905E0,9.811760559E0
2.863692032E0,3.824117422E0,-1.761171103E0,-9.047944069E0,9.979523515E0
2.866137553E0,3.879182100E0,-1.730047822E0,-9.272990227E0,1.019948366E1
2.868583022E0,3.977339983E0,-1.694136381E0,-9.512398720E0,1.044868704E1
2.871027761E0,4.094651222E0,-1.665407062E0,-9.720685959E0,1.067855256E1
2.873472449E0,4.226325989E0,-1.660618901E0,-9.900242805E0,1.089193711E1
2.875917969E0,4.319695950E0,-1.684559941E0,-1.005107212E1,1.106894602E1
2.878363438E0,4.403489590E0,-1.694136381E0,-1.014683628E1,1.119013428E1
2.880808178E0,4.472918510E0,-1.718077302E0,-1.022823524E1,1.129493629E1
2.883252865E0,4.499253750E0,-1.734835982E0,-1.028090477E1,1.135561284E1
2.885698334E0,4.535165310E0,-1.732441783E0,-1.031202793E1,1.139767516E1
2.888143855E0,4.587835312E0,-1.734835982E0,-1.033118153E1,1.143639805E1
2.890588542E0,4.657264233E0,-1.708500981E0,-1.032160473E1,1.145183871E1
2.893033230E0,4.741057873E0,-1.667801261E0,-1.025696373E1,1.142210557E1
2.895478751E0,4.808092117E0,-1.643860221E0,-1.015641212E1,1.135661629E1
2.897924219E0,4.913432598E0,-1.617525101E0,-1.005825424E1,1.131046797E1
2.900368959E0,4.997226238E0,-1.595978260E0,-9.945731163E0,1.124442017E1
2.902813647E0,5.109748840E0,-1.581613660E0,-9.830815315E0,1.119178112E1
2.905259167E0,5.203118801E0,-1.560066819E0,-9.713503838E0,1.112916936E1
2.907704636E0,5.325217724E0,-1.519367099E0,-9.589011192E0,1.107319086E1
2.910149324E0,5.413799286E0,-1.505002499E0,-9.490853310E0,1.102953090E1
2.912594011E0,5.502381325E0,-1.488243818E0,-9.366358757E0,1.096447656E1
2.915039532E0,5.586174488E0,-1.488243818E0,-9.232290268E0,1.089290589E1
2.917485053E0,5.734608650E0,-1.526549339E0,-9.103009224E0,1.086650202E1
2.919929740E0,5.861495495E0,-1.567249060E0,-9.019215584E0,1.087012644E1
2.922374428E0,6.000353813E0,-1.615131140E0,-8.897115707E0,1.085226070E1
2.924819949E0,6.120058537E0,-1.674983501E0,-8.786988258E0,1.083844310E1
2.927265417E0,6.249339581E0,-1.742018342E0,-8.688830376E0,1.084364544E1
2.929710157E0,6.347497463E0,-1.828205824E0,-8.578701019E0,1.082714975E1
2.932154844E0,6.421715260E0,-1.914393306E0,-8.461390495E0,1.079344513E1
2.934600365E0,6.412138462E0,-1.995792747E0,-8.267468452E0,1.065127894E1
2.937045834E0,6.361862659E0,-2.098739147E0,-8.068758011E0,1.048727125E1
2.939490522E0,6.364256859E0,-2.211261749E0,-7.891594410E0,1.037644960E1
2.941935209E0,6.337921619E0,-2.309419870E0,-7.743160725E0,1.026933341E1
2.944380730E0,6.333133221E0,-2.405183792E0,-7.587543964E0,1.017174070E1
2.946826251E0,6.325951099E0,-2.493765354E0,-7.431927681E0,1.007323543E1
2.949270938E0,6.347497463E0,-2.618258476E0,-7.264340401E0,9.995831279E0
2.951715626E0,6.395379543E0,-2.761904478E0,-7.123089314E0,9.963302526E0
2.954161147E0,6.436079502E0,-2.864850760E0,-7.015354633E0,9.942116971E0
2.956606615E0,6.481567383E0,-2.982161522E0,-6.898043633E0,9.924062124E0
2.959051355E0,6.548602104E0,-3.080319643E0,-6.787915230E0,9.922114280E0
2.961496042E0,6.630001545E0,-3.192842245E0,-6.718486309E0,9.964397642E0
2.963941563E0,6.694642067E0,-3.279029846E0,-6.637087345E0,9.981041908E0
2.966387032E0,6.730553627E0,-3.326911926E0,-6.553293705E0,9.965658708E0
2.968831719E0,6.764070988E0,-3.393946648E0,-6.471894264E0,9.957758058E0
2.971276407E0,6.792799950E0,-3.432252169E0,-6.383312702E0,9.933235483E0
2.973721928E0,6.799982548E0,-3.472951889E0,-6.335430622E0,9.921634877E0
2.976167397E0,6.802376747E0,-3.539986610E0,-6.246849060E0,9.890751124E0
2.978612136E0,6.797588825E0,-3.595050812E0,-6.194178581E0,9.874181104E0
2.981056824E0,6.804770470E0,-3.611809492E0,-6.131932259E0,9.846352735E0
2.983502344E0,6.821529388E0,-3.669267893E0,-6.086443901E0,9.850968959E0
2.985947813E0,6.850258827E0,-3.712361574E0,-6.040956497E0,9.859048121E0
2.988392553E0,6.912505150E0,-3.748273134E0,-6.021803856E0,9.904261740E0
2.990837240E0,6.962780952E0,-3.788972855E0,-5.964344978E0,9.920183713E0
2.993282761E0,7.020239830E0,-3.817702055E0,-5.914069176E0,9.941570825E0
2.995728230E0,7.099244595E0,-3.836854935E0,-5.882946014E0,9.986480031E0
2.998172917E0,7.240496635E0,-3.865584135E0,-5.815911293E0,1.005944116E1
3.000617605E0,7.364989758E0,-3.903889656E0,-5.720147133E0,1.010957525E1
3.003063126E0,7.513423920E0,-3.935012817E0,-5.593260288E0,1.015974535E1
3.005508594E0,7.666646004E0,-3.942195177E0,-5.435249805E0,1.019118758E1
3.007953334E0,7.834232807E0,-3.949377298E0,-5.212598324E0,1.020509510E1
3.010398022E0,8.030549049E0,-3.925436497E0,-4.973187923E0,1.022894754E1
3.012843542E0,8.219682693E0,-3.925436497E0,-4.676320076E0,1.023915059E1
3.015289011E0,8.404028893E0,-3.925436497E0,-4.350722790E0,1.024526926E1
3.017733751E0,8.619496346E0,-3.879948616E0,-3.982031345E0,1.025701185E1
3.020178438E0,8.794266701E0,-3.827278376E0,-3.618128300E0,1.025075797E1
3.022623959E0,8.995370865E0,-3.812913895E0,-3.237466812E0,1.029253131E1
3.025069428E0,9.172533989E0,-3.798549414E0,-2.866381168E0,1.033346498E1
3.027514115E0,9.325757027E0,-3.791366816E0,-2.514448643E0,1.037625455E1
3.029958803E0,9.452643394E0,-3.791366816E0,-2.253491879E0,1.043097096E1
3.032404324E0,9.574742317E0,-3.803337336E0,-2.011688232E0,1.049704505E1
3.034849792E0,9.625019073E0,-3.805731535E0,-1.834524751E0,1.051142549E1
3.037294532E0,9.689660072E0,-3.841643095E0,-1.736366749E0,1.056705747E1
3.039739219E0,9.689660072E0,-3.889525175E0,-1.702849388E0,1.057911218E1
3.042184740E0,9.636988640E0,-3.932618856E0,-1.717213988E0,1.054921158E1
3.044630209E0,9.565165520E0,-3.997259378E0,-1.760307789E0,1.051518699E1
3.047074949E0,9.481372833E0,-4.097811222E0,-1.891983151E0,1.050086129E1
3.049519636E0,9.344908714E0,-4.169634342E0,-2.033235073E0,1.043298683E1
3.051965157E0,9.189292908E0,-4.298915863E0,-2.224762917E0,1.038620969E1
3.054410626E0,9.055222511E0,-4.401861668E0,-2.476143360E0,1.036844862E1
3.056855313E0,8.868483543E0,-4.480867386E0,-2.780193806E0,1.031783168E1
3.059300001E0,8.703290939E0,-4.569448948E0,-3.103397369E0,1.030816240E1
3.061745522E0,8.516551018E0,-4.612542152E0,-3.469694138E0,1.028814676E1
3.064190990E0,8.372904778E0,-4.643665791E0,-3.847961903E0,1.031871975E1
3.066635730E0,8.205318451E0,-4.686759949E0,-4.250170708E0,1.036131848E1
3.069080417E0,8.073642731E0,-4.670001030E0,-4.635620594E0,1.041544982E1
3.071525938E0,7.994637966E0,-4.670001030E0,-5.006705761E0,1.052569468E1
3.073971407E0,7.934785366E0,-4.624512672E0,-5.334697247E0,1.062101365E1
3.076416147E0,7.910844326E0,-4.605360508E0,-5.648324013E0,1.075613162E1
3.078860834E0,7.889297962E0,-4.569448948E0,-5.887733936E0,1.085293955E1
3.081306303E0,7.882114887E0,-4.511990547E0,-6.117567539E0,1.095036193E1
3.083751824E0,7.872539043E0,-4.421014786E0,-6.289942741E0,1.100389124E1
3.086196511E0,7.889297962E0,-4.279762745E0,-6.402465343E0,1.102492422E1
3.088641199E0,7.879721165E0,-4.145693302E0,-6.474287987E0,1.100877757E1
3.091086719E0,7.850991726E0,-4.004441738E0,-6.486258507E0,1.094281381E1
3.093532188E0,7.748045444E0,-3.872766256E0,-6.440771103E0,1.079416783E1
3.095976928E0,7.585246563E0,-3.690814734E0,-6.311489582E0,1.053532057E1
3.098421615E0,7.333866596E0,-3.532804251E0,-6.141508579E0,1.019727575E1
3.100867136E0,7.048968792E0,-3.350852728E0,-5.926039696E0,9.799700072E0
3.103312605E0,6.720977306E0,-3.219177246E0,-5.653112411E0,9.353732839E0
3.105757292E0,6.361862659E0,-3.063560724E0,-5.384973049E0,8.880125875E0
3.108201980E0,6.026688576E0,-2.912732601E0,-5.126410484E0,8.431196288E0
3.110647501E0,5.763337612E0,-2.757116318E0,-4.910941601E0,8.058231706E0
3.113093022E0,5.574203968E0,-2.661352396E0,-4.740960598E0,7.786607339E0
3.115537709E0,5.464075565E0,-2.575164795E0,-4.659561634E0,7.628834126E0
3.117982397E0,5.461681366E0,-2.508130074E0,-4.628437996E0,7.585718034E0
3.120427917E0,5.531110287E0,-2.450671673E0,-4.666743755E0,7.640515030E0
3.122873386E0,5.698697090E0,-2.407577753E0,-4.776872158E0,7.816014763E0
3.125318126E0,5.930924892E0,-2.400395632E0,-4.956429482E0,8.093451827E0
3.127762813E0,6.148787498E0,-2.402789593E0,-5.159928322E0,8.378892875E0
3.130208334E0,6.371438503E0,-2.429124832E0,-5.377790928E0,8.684268036E0
3.132653803E0,6.567755222E0,-2.479400873E0,-5.626777172E0,8.996858268E0
3.135098490E0,6.673095226E0,-2.544041634E0,-5.835063934E0,9.222272976E0
3.137543178E0,6.682671547E0,-2.623046875E0,-6.076868057E0,9.405679098E0
3.139988699E0,6.665913105E0,-2.702052116E0,-6.254031181E0,9.531442135E0
3.142434219E0,6.594089985E0,-2.795421839E0,-6.445559025E0,9.635436530E0
3.144878907E0,6.524661064E0,-2.869638920E0,-6.641875267E0,9.742717105E0
3.147323594E0,6.390591621E0,-2.970191002E0,-6.768762589E0,9.771276418E0
3.149769115E0,6.302010059E0,-3.039619923E0,-6.888467312E0,9.818635443E0
3.152214584E0,6.266098499E0,-3.073137283E0,-7.008172035E0,9.890532768E0
3.154659324E0,6.201457500E0,-3.128201485E0,-7.113512516E0,9.942121503E0
3.157104011E0,6.220610619E0,-3.130595684E0,-7.221247196E0,1.003210032E1
3.159549532E0,6.290039539E0,-3.113837004E0,-7.352922440E0,1.016494204E1
3.161995001E0,6.349892139E0,-3.070743322E0,-7.434322357E0,1.024791411E1
3.164439688E0,6.383409023E0,-3.020467043E0,-7.513327122E0,1.031121799E1
3.166884376E0,6.378621101E0,-2.967797041E0,-7.520509720E0,1.029818882E1
3.169329897E0,6.299615860E0,-2.860062599E0,-7.532480240E0,1.022757922E1
3.171775417E0,6.141605377E0,-2.747539759E0,-7.494174004E0,1.007129263E1
3.174220105E0,5.906983852E0,-2.596711636E0,-7.443898201E0,9.851243068E0
3.176664792E0,5.614903450E0,-2.467430353E0,-7.391228199E0,9.604457694E0
3.179110313E0,5.318035126E0,-2.342936993E0,-7.297858238E0,9.328964906E0
3.181555782E0,5.040319920E0,-2.239990711E0,-7.202094078E0,9.071523708E0
3.184000522E0,4.832033157E0,-2.158591509E0,-7.060842514E0,8.824033020E0
3.186445209E0,4.652476311E0,-2.081980467E0,-6.919590473E0,8.594237069E0
3.188890730E0,4.578258514E0,-1.957487226E0,-6.802279472E0,8.429899957E0
3.191336199E0,4.609382153E0,-1.871299624E0,-6.670604706E0,8.321366069E0
3.193780886E0,4.712327957E0,-1.792294383E0,-6.550899506E0,8.266355803E0
3.196225574E0,4.865550518E0,-1.710894942E0,-6.419224262E0,8.234511733E0
3.198671094E0,5.069049358E0,-1.643860221E0,-6.304306984E0,8.254806138E0
3.201116563E0,5.234241962E0,-1.631889701E0,-6.242060661E0,8.308048761E0
3.203561303E0,5.418587685E0,-1.646254301E0,-6.177420139E0,8.380439445E0
3.206005990E0,5.571809769E0,-1.667801261E0,-6.182208061E0,8.488010465E0
3.208451511E0,5.641238689E0,-1.684559941E0,-6.246849060E0,8.583964080E0
3.210896980E0,5.624480247E0,-1.730047822E0,-6.311489582E0,8.629179814E0
3.213341719E0,5.595750809E0,-1.725259542E0,-6.400071144E0,8.674667616E0
3.215786407E0,5.535898209E0,-1.765959263E0,-6.538928986E0,8.747706749E0
3.218231928E0,5.456892967E0,-1.782717943E0,-6.708909988E0,8.829792600E0
3.220677397E0,5.420981884E0,-1.818629503E0,-6.840585709E0,8.915608263E0
3.223122084E0,5.382676125E0,-1.806658983E0,-7.017748833E0,9.026960597E0
3.225566772E0,5.406617165E0,-1.809053063E0,-7.147030354E0,9.142440868E0
3.228012292E0,5.387464046E0,-1.811447024E0,-7.273917198E0,9.231250218E0
3.230457761E0,5.389858246E0,-1.797082543E0,-7.381651402E0,9.314980139E0
3.232902501E0,5.327611446E0,-1.785112023E0,-7.431927681E0,9.316845910E0
3.235347188E0,5.241424084E0,-1.730047822E0,-7.506144524E0,9.317070221E0
3.237792709E0,5.160024643E0,-1.701318622E0,-7.558815002E0,9.308921721E0
3.240238178E0,5.104960442E0,-1.636677980E0,-7.640214443E0,9.333392345E0
3.242682917E0,5.052290440E0,-1.567249060E0,-7.759919167E0,9.391392536E0
3.245127605E0,5.049896240E0,-1.493031979E0,-7.877230167E0,9.475302192E0
3.247573126E0,5.100172043E0,-1.404450297E0,-8.068758011E0,9.648268826E0
3.250018594E0,5.183965683E0,-1.318262815E0,-8.238739014E0,9.822837553E0
3.252463282E0,5.279729843E0,-1.256016254E0,-8.456602097E0,1.004824577E1
3.254907969E0,5.399434566E0,-1.193769693E0,-8.710375786E0,1.031744281E1
3.257353490E0,5.523927689E0,-1.136311293E0,-8.906692505E0,1.054201839E1
3.259798959E0,5.583780289E0,-1.095611691E0,-9.134132385E0,1.076156781E1
3.262243699E0,5.655602932E0,-1.047729731E0,-9.342417717E0,1.097106881E1
3.264688386E0,5.669967651E0,-9.926654696E-1,-9.565070152E0,1.116353371E1
3.267133907E0,5.650815010E0,-9.495716691E-1,-9.711110115E0,1.127559561E1
3.269579376E0,5.638844490E0,-9.304189086E-1,-9.835602760E0,1.137547046E1
3.272024115E0,5.626873970E0,-8.897191882E-1,-9.893060684E0,1.141603962E1
3.274468803E0,5.650815010E0,-8.753545880E-1,-9.900242805E0,1.143296827E1
3.276914272E0,5.674756050E0,-8.753545880E-1,-9.816450119E0,1.137241376E1
3.279359792E0,5.722638130E0,-8.921132684E-1,-9.677592278E0,1.127830863E1
3.281804480E0,5.775308132E0,-9.328129292E-1,-9.493247032E0,1.115105660E1
3.284249167E0,5.758549690E0,-1.011818171E0,-9.256231308E0,1.094817284E1
3.286694688E0,5.746579170E0,-1.054911971E0,-9.071885109E0,1.079051022E1
3.289140157E0,5.705879211E0,-1.093217492E0,-8.861205101E0,1.059590194E1
3.291584897E0,5.665179729E0,-1.165040493E0,-8.657706261E0,1.041189024E1
3.294029584E0,5.590962887E0,-1.203346133E0,-8.504484177E0,1.024856863E1
3.296475105E0,5.509562969E0,-1.272774935E0,-8.370414734E0,1.010143965E1
3.298920574E0,5.459287167E0,-1.358962417E0,-8.253103256E0,9.988208477E0
3.301365313E0,5.435346127E0,-1.394873977E0,-8.176492691E0,9.916838894E0
3.303810001E0,5.444922447E0,-1.461908698E0,-8.123822212E0,9.888419734E0
3.306255469E0,5.430558205E0,-1.540913939E0,-8.037634850E0,9.821860931E0
3.308700990E0,5.454499245E0,-1.622313380E0,-7.980176449E0,9.801361072E0
3.311145678E0,5.495198727E0,-1.698924422E0,-7.953841209E0,9.815658064E0
3.313590365E0,5.440134525E0,-1.797082543E0,-7.939476490E0,9.790804679E0
3.316035886E0,5.363523006E0,-1.928757906E0,-7.872442245E0,9.719199196E0
3.318481355E0,5.239030361E0,-2.077192307E0,-7.795830727E0,9.619622847E0
3.320926094E0,5.092989922E0,-2.206473589E0,-7.743160725E0,9.526993757E0
3.323370782E0,4.951738358E0,-2.321390390E0,-7.688096046E0,9.434796602E0
3.325816303E0,4.779363155E0,-2.381242752E0,-7.649790764E0,9.329090414E0
3.328261772E0,4.633323193E0,-2.398001671E0,-7.695278645E0,9.297064550E0
3.330706511E0,4.482495308E0,-2.448277473E0,-7.750343323E0,9.281952833E0
3.333151199E0,4.358001709E0,-2.465036392E0,-7.896383286E0,9.349943973E0
3.335596719E0,4.271814346E0,-2.441095352E0,-8.068758011E0,9.450513222E0
3.338042188E0,4.197597027E0,-2.407577753E0,-8.291409492E0,9.600193894E0
3.340486876E0,4.142532825E0,-2.364484072E0,-8.540394783E0,9.782111540E0
3.342931563E0,4.123380184E0,-2.323784351E0,-8.782198906E0,9.976435008E0
3.345377084E0,4.149714947E0,-2.275902271E0,-9.033579826E0,1.019830524E1
3.347822553E0,4.240691185E0,-2.196897030E0,-9.325659752E0,1.047748768E1
3.350267292E0,4.338849068E0,-2.151409388E0,-9.574645996E0,1.072977258E1
3.352711980E0,4.470524788E0,-2.115497828E0,-9.828421593E0,1.100267213E1
3.355157501E0,4.575864792E0,-2.101133108E0,-1.001037216E1,1.120539378E1
3.357602969E0,4.669234753E0,-2.062827587E0,-1.015641212E1,1.136704527E1
3.360047657E0,4.781757355E0,-2.029310226E0,-1.026414585E1,1.150373824E1
3.362492344E0,4.867944717E0,-2.005369186E0,-1.035751629E1,1.161880093E1
3.364937865E0,4.894279957E0,-1.974245787E0,-1.039103413E1,1.165440745E1
3.367383386E0,4.906250000E0,-1.933546185E0,-1.037906265E1,1.164194277E1
3.369828074E0,4.903856277E0,-1.880875945E0,-1.034554577E1,1.160240570E1
3.372272761E0,4.899068356E0,-1.844964623E0,-1.026893520E1,1.152630884E1
3.374718282E0,4.877521038E0,-1.768353343E0,-1.015401840E1,1.140269156E1
3.377163751E0,4.872733116E0,-1.725259542E0,-1.003191948E1,1.128536472E1
3.379608490E0,4.877521038E0,-1.696530461E0,-9.881091118E0,1.114918781E1
3.382053178E0,4.863156796E0,-1.670195341E0,-9.739839554E0,1.101382409E1
3.384498699E0,4.829638958E0,-1.643860221E0,-9.586617470E0,1.085960052E1
3.386944167E0,4.824851036E0,-1.636677980E0,-9.435788155E0,1.072343231E1
3.389388855E0,4.848792076E0,-1.653436542E0,-9.313689232E0,1.062964929E1
3.391833542E0,4.872733116E0,-1.670195341E0,-9.237077713E0,1.057623209E1
3.394279063E0,4.942161560E0,-1.708500981E0,-9.193984032E0,1.057701654E1
3.396724584E0,5.049896240E0,-1.775535703E0,-9.155678749E0,1.060567925E1
3.399169272E0,5.191148281E0,-1.861723185E0,-9.155678749E0,1.068833416E1
3.401613959E0,5.330005646E0,-1.940728426E0,-9.134132385E0,1.075210498E1
3.404059480E0,5.456892967E0,-2.031704187E0,-9.088644028E0,1.079393131E1
3.406504949E0,5.593356609E0,-2.125074148E0,-9.059915543E0,1.085742363E1
3.408949688E0,5.686726570E0,-2.256749630E0,-8.964151382E0,1.085300825E1
3.411394376E0,5.782490730E0,-2.359695911E0,-8.897115707E0,1.087032804E1
3.413839897E0,5.875860214E0,-2.462642193E0,-8.832474709E0,1.089049812E1
3.416285365E0,5.985989094E0,-2.560800076E0,-8.741499901E0,1.089970564E1
3.418730053E0,6.072176456E0,-2.673322916E0,-8.600248337E0,1.086196362E1
3.421174740E0,6.158364296E0,-2.764298677E0,-8.451813698E0,1.081665164E1
3.423620261E0,6.282856941E0,-2.891185760E0,-8.269862175E0,1.078071736E1
3.426065730E0,6.369044781E0,-2.986949921E0,-8.107063293E0,1.073364228E1
3.428510469E0,6.491143703E0,-3.087501764E0,-7.903564930E0,1.068334930E1
3.430955157E0,6.606060505E0,-3.159324884E0,-7.740766525E0,1.065555421E1
3.433400678E0,6.694642067E0,-3.214389086E0,-7.558815002E0,1.059651895E1
3.435846147E0,6.718583107E0,-3.259876966E0,-7.374469757E0,1.049518752E1
3.438290886E0,6.730553627E0,-3.314941406E0,-7.190123558E0,1.039168251E1
3.440735574E0,6.732947826E0,-3.355641127E0,-7.036901474E0,1.030101433E1
3.443181094E0,6.732947826E0,-3.398734808E0,-6.895649433E0,1.021929380E1
3.445626563E0,6.701824665E0,-3.417887688E0,-6.780733109E0,1.012791941E1
3.448071251E0,6.658730507E0,-3.494498491E0,-6.620327950E0,1.001892977E1
3.450515938E0,6.634789467E0,-3.539986610E0,-6.505411625E0,9.943455983E0
3.452961459E0,6.641972065E0,-3.616597891E0,-6.392889023E0,9.902757357E0
3.455406928E0,6.663518429E0,-3.705179214E0,-6.287548542E0,9.882514737E0
3.457851667E0,6.752100468E0,-3.791366816E0,-6.196572781E0,9.917804055E0
3.460296355E0,6.847864628E0,-3.889525175E0,-6.153479099E0,9.994346456E0
3.462741876E0,7.032210350E0,-3.978106499E0,-6.103203297E0,1.012553229E1
3.465187344E0,7.226132393E0,-4.049929619E0,-6.062503338E0,1.026512864E1
3.467632084E0,7.451177120E0,-4.104993820E0,-6.012227058E0,1.041719199E1
3.470076772E0,7.659464359E0,-4.183999062E0,-5.949980736E0,1.056293109E1
3.472522292E0,7.865356922E0,-4.212728024E0,-5.815911293E0,1.065062163E1
3.474967761E0,8.066460609E0,-4.272580147E0,-5.698600292E0,1.076089091E1
3.477412449E0,8.315446854E0,-4.313280106E0,-5.497496128E0,1.086156091E1
3.479857136E0,8.557250977E0,-4.265398502E0,-5.267662525E0,1.091642969E1
3.482302657E0,8.801448822E0,-4.246245384E0,-4.987553120E0,1.097140772E1
3.484748126E0,9.019311905E0,-4.169634342E0,-4.681107998E0,1.098392507E1
3.487192865E0,9.258721352E0,-4.112175941E0,-4.310023308E0,1.100955099E1
3.489637553E0,9.493342400E0,-4.030776501E0,-3.946119785E0,1.104276100E1
3.492083074E0,9.694447517E0,-3.954165459E0,-3.546305656E0,1.105414044E1
3.494528542E0,9.897945404E0,-3.894313097E0,-3.127337933E0,1.108671458E1
3.496973282E0,1.007032108E1,-3.815307856E0,-2.732311726E0,1.111006157E1
3.499417969E0,1.021396637E1,-3.779396296E0,-2.342073917E0,1.113976012E1
3.501863438E0,1.030733681E1,-3.724332094E0,-2.004505634E0,1.114135918E1
3.504308959E0,1.042464733E1,-3.666873932E0,-1.710031629E0,1.118228262E1
3.506753647E0,1.048689365E1,-3.642932892E0,-1.427528024E0,1.119302170E1
3.509198334E0,1.051801777E1,-3.616597891E0,-1.195300341E0,1.118647491E1
3.511643855E0,1.052759361E1,-3.638144493E0,-1.027713537E0,1.118581771E1
3.514089324E0,1.051322937E1,-3.647721052E0,-9.295554161E-1,1.116682291E1
3.516534063E0,1.046774197E1,-3.705179214E0,-8.720970750E-1,1.113833597E1
3.518978751E0,1.043422413E1,-3.762637854E0,-8.864616752E-1,1.112727689E1
3.521424272E0,1.035761261E1,-3.827278376E0,-9.702551365E-1,1.108465578E1
3.523869740E0,1.021396637E1,-3.906283617E0,-1.087566018E0,1.098940219E1
3.526314480E0,1.006074429E1,-3.978106499E0,-1.370069623E0,1.090509045E1
3.528759167E0,9.885975838E0,-4.078658581E0,-1.662149668E0,1.082269447E1
3.531204688E0,9.727964401E0,-4.157663822E0,-2.018870354E0,1.077011130E1
3.533650157E0,9.493342400E0,-4.241457462E0,-2.409108639E0,1.067320551E1
3.536094844E0,9.289844513E0,-4.294127464E0,-2.811316967E0,1.061339931E1
3.538539532E0,9.014523506E0,-4.344403267E0,-3.189584732E0,1.050280556E1
3.540985053E0,8.684137344E0,-4.392285347E0,-3.594187260E0,1.037422739E1
3.543430522E0,8.430363655E0,-4.409044266E0,-3.953302383E0,1.030239304E1
3.545875261E0,8.205318451E0,-4.397073746E0,-4.307629108E0,1.025754244E1
3.548319949E0,8.030549049E0,-4.358768463E0,-4.652379036E0,1.025344875E1
3.550765469E0,7.867750645E0,-4.325250626E0,-4.970794201E0,1.026246014E1
3.553210938E0,7.786351204E0,-4.265398502E0,-5.248509407E0,1.031347373E1
3.555655678E0,7.714528084E0,-4.193575382E0,-5.502284050E0,1.036219802E1
3.558100365E0,7.709740162E0,-4.128934383E0,-5.710570812E0,1.044503765E1
3.560545834E0,7.673828602E0,-4.049929619E0,-5.859004974E0,1.046983833E1
3.562991355E0,7.685799122E0,-3.915860176E0,-6.007439137E0,1.051165040E1
3.565436042E0,7.697769642E0,-3.829672575E0,-6.119961739E0,1.055348195E1
3.567880730E0,7.681010723E0,-3.717149734E0,-6.172631741E0,1.053169077E1
3.570326251E0,7.611582279E0,-3.559139252E0,-6.246849060E0,1.047028081E1
3.572771719E0,7.511029720E0,-3.384370089E0,-6.186996460E0,1.030283716E1
3.575216459E0,7.357807636E0,-3.214389086E0,-6.124749660E0,1.009862311E1
3.577661147E0,7.168673515E0,-3.053984642E0,-6.021803856E0,9.847782687E0
3.580106667E0,6.938840389E0,-2.900762081E0,-5.844640255E0,9.524796392E0
3.582552136E0,6.704218864E0,-2.771480799E0,-5.689023972E0,9.219145847E0
3.584996824E0,6.515084743E0,-2.685293436E0,-5.509466648E0,8.944906528E0
3.587441511E0,6.354680061E0,-2.601499796E0,-5.353849888E0,8.707092999E0
3.589887032E0,6.227793217E0,-2.591923475E0,-5.217386723E0,8.527871942E0
3.592332553E0,6.175122738E0,-2.577558756E0,-5.112046242E0,8.420746211E0
3.594777240E0,6.120058537E0,-2.603893757E0,-5.076134682E0,8.366751012E0
3.597221928E0,6.096117496E0,-2.615864277E0,-5.049799442E0,8.337017983E0
3.599667449E0,6.036265373E0,-2.651775837E0,-5.088105202E0,8.328098780E0
3.602112917E0,6.005141735E0,-2.690081596E0,-5.143169403E0,8.351673950E0
3.604557657E0,5.957259655E0,-2.757116318E0,-5.334697247E0,8.458701301E0
3.607002344E0,5.899801254E0,-2.833727360E0,-5.521437168E0,8.562939565E0
3.609447865E0,5.854313850E0,-2.917520761E0,-5.741693974E0,8.703560636E0
3.611893334E0,5.818402290E0,-2.984555483E0,-6.005044937E0,8.878172185E0
3.614338022E0,5.839949131E0,-3.089895964E0,-6.256424904E0,9.099193123E0
3.616782709E0,5.875860214E0,-3.180871725E0,-6.519776344E0,9.335478658E0
3.619228230E0,5.914165974E0,-3.269453287E0,-6.771156788E0,9.566360238E0
3.621673751E0,5.985989094E0,-3.370005608E0,-7.005778313E0,9.811724262E0
3.624118438E0,6.055417538E0,-3.425069809E0,-7.190123558E0,1.000485190E1
3.626563126E0,6.053023815E0,-3.499286890E0,-7.364892960E0,1.015508515E1
3.629008647E0,6.093723297E0,-3.566321611E0,-7.467839241E0,1.027719497E1
3.631454115E0,6.057811737E0,-3.604627371E0,-7.546844482E0,1.032692031E1
3.633898855E0,6.038659096E0,-3.628568411E0,-7.561209202E0,1.033459225E1
3.636343542E0,6.019505978E0,-3.647721052E0,-7.532480240E0,1.030915029E1
3.638789063E0,5.995564938E0,-3.652508974E0,-7.520509720E0,1.028813332E1
3.641234532E0,6.041053295E0,-3.628568411E0,-7.446292400E0,1.025222435E1
3.643679219E0,6.124846458E0,-3.561533213E0,-7.364892960E0,1.021958469E1
3.646123907E0,6.254127979E0,-3.523227930E0,-7.302646637E0,1.023991698E1
3.648569428E0,6.376227379E0,-3.460981369E0,-7.235611439E0,1.024640134E1
3.651014897E0,6.560572624E0,-3.415493250E0,-7.139847755E0,1.028027885E1
3.653459636E0,6.732947826E0,-3.329305887E0,-7.034507751E0,1.029082909E1
3.655904324E0,6.929263592E0,-3.255088806E0,-6.960289955E0,1.034678372E1
3.658349844E0,6.996298790E0,-3.149748564E0,-6.878890991E0,1.030476851E1
3.660795313E0,7.010663033E0,-3.032437563E0,-6.797491550E0,1.022501663E1
3.663240053E0,6.902928829E0,-2.864850760E0,-6.720880508E0,1.005127012E1
3.665684740E0,6.744918346E0,-2.721204758E0,-6.670604706E0,9.868933376E0
3.668130261E0,6.541419506E0,-2.565588236E0,-6.620327950E0,9.654074493E0
3.670575730E0,6.371438503E0,-2.424336672E0,-6.584416389E0,9.477719984E0
3.673020417E0,6.172728539E0,-2.261537790E0,-6.510199547E0,9.252017560E0
3.675465105E0,5.985989094E0,-2.187320709E0,-6.440771103E0,9.060903361E0
3.677910626E0,5.823190212E0,-2.084374666E0,-6.316277504E0,8.840221915E0
3.680356094E0,5.660391808E0,-2.000581026E0,-6.124749660E0,8.576416400E0
3.682800834E0,5.598145008E0,-1.921575665E0,-5.933222294E0,8.380620941E0
3.685245522E0,5.602932930E0,-1.856934905E0,-5.784787655E0,8.264673791E0
3.687691042E0,5.653209209E0,-1.811447024E0,-5.650718212E0,8.195775192E0
3.690136511E0,5.705879211E0,-1.799476743E0,-5.521437168E0,8.141341568E0
3.692581251E0,5.763337612E0,-1.794688463E0,-5.495101929E0,8.162910775E0
3.695025938E0,5.839949131E0,-1.789900184E0,-5.523830891E0,8.235378329E0
3.697471407E0,5.897407055E0,-1.825811744E0,-5.655506611E0,8.372440117E0
3.699916928E0,5.945289135E0,-1.859329104E0,-5.961951256E0,8.622553589E0
3.702361615E0,5.950077534E0,-1.871299624E0,-6.275578022E0,8.848054275E0
3.704806303E0,5.918954372E0,-1.888058305E0,-6.629904747E0,9.085946400E0
3.707251824E0,5.911771774E0,-1.911999345E0,-6.979443073E0,9.344378664E0
3.709697292E0,5.871072292E0,-1.926363826E0,-7.309828758E0,9.571518371E0
3.712142032E0,5.813613892E0,-1.919181585E0,-7.589938164E0,9.751334563E0
3.714586719E0,5.748973370E0,-1.895240545E0,-7.872442245E0,9.930658510E0
3.717032240E0,5.643632889E0,-1.861723185E0,-8.075940132E0,1.002683472E1
3.719477709E0,5.545474529E0,-1.830599904E0,-8.166915894E0,1.004001489E1
3.721922449E0,5.418587685E0,-1.785112023E0,-8.236345291E0,1.001923656E1
3.724367136E0,5.301276684E0,-1.725259542E0,-8.286621094E0,9.987399267E0
3.726812605E0,5.195936203E0,-1.665407062E0,-8.336896896E0,9.963693269E0
3.729258126E0,5.162419319E0,-1.584007740E0,-8.394355774E0,9.981225506E0
3.731702813E0,5.145659924E0,-1.481061459E0,-8.466178894E0,1.001736214E1
3.734147501E0,5.155236721E0,-1.423603058E0,-8.561942101E0,1.009504650E1
3.736593022E0,5.181571484E0,-1.366144776E0,-8.679253578E0,1.020021947E1
3.739038490E0,5.277335644E0,-1.335021496E0,-8.858811378E0,1.039764843E1
3.741483230E0,5.344370842E0,-1.256016254E0,-9.059915543E0,1.059348603E1
3.743927917E0,5.428164005E0,-1.220104694E0,-9.251442909E0,1.079549980E1
3.746373438E0,5.449710846E0,-1.208134174E0,-9.423818588E0,1.095295820E1
3.748818907E0,5.394646645E0,-1.174616814E0,-9.567463875E0,1.104618948E1
3.751263594E0,5.315640926E0,-1.157858253E0,-9.660834312E0,1.108730778E1
3.753708282E0,5.207906723E0,-1.133917212E0,-9.668016434E0,1.103986424E1
3.756153803E0,5.112142563E0,-1.119552612E0,-9.603375435E0,1.093673714E1
3.758599324E0,4.999619961E0,-1.102793932E0,-9.433394432E0,1.073318614E1
3.761044011E0,4.937373638E0,-1.062094212E0,-9.193984032E0,1.048975905E1
3.763488699E0,4.930191040E0,-1.021394610E0,-8.978514671E0,1.029386984E1
3.765934219E0,4.934979439E0,-9.926654696E-1,-8.734316826E0,1.008105635E1
3.768379688E0,4.999619961E0,-9.591479897E-1,-8.542789459E0,9.944617457E0
3.770824428E0,5.104960442E0,-9.519657493E-1,-8.425478935E0,9.897249880E0
3.773269115E0,5.253394604E0,-9.232365489E-1,-8.372808456E0,9.927458992E0
3.775714636E0,5.361129284E0,-9.376011491E-1,-8.387172699E0,9.998273301E0
3.778160105E0,5.492804527E0,-9.639362693E-1,-8.463784218E0,1.013586296E1
3.780604792E0,5.578992367E0,-9.950594902E-1,-8.612217903E0,1.030949060E1
3.783049480E0,5.590962887E0,-1.038153291E0,-8.724740982E0,1.041430427E1
3.785495001E0,5.631662369E0,-1.062094212E0,-8.808533669E0,1.050875495E1
3.787940522E0,5.622086048E0,-1.109976172E0,-8.846839905E0,1.054070562E1
3.790385209E0,5.574203968E0,-1.143493533E0,-8.820505142E0,1.049669654E1
3.792829897E0,5.523927689E0,-1.177011013E0,-8.746288300E0,1.041137316E1
3.795275417E0,5.454499245E0,-1.186587334E0,-8.595459938E0,1.024897473E1
3.797720886E0,5.370705605E0,-1.229681253E0,-8.449419975E0,1.008708544E1
3.800165626E0,5.327611446E0,-1.282351375E0,-8.250709534E0,9.904649241E0
3.802610313E0,5.219877243E0,-1.337415576E0,-8.080728531E0,9.712567758E0
3.805055834E0,5.088202000E0,-1.414026737E0,-7.855683327E0,9.465782151E0
3.807501303E0,4.930191040E0,-1.505002499E0,-7.633032322E0,9.210591655E0
3.809945990E0,4.769786835E0,-1.605554700E0,-7.415169239E0,8.961774779E0
3.812390678E0,4.585441113E0,-1.672589421E0,-7.230823517E0,8.724026267E0
3.814836199E0,4.427430630E0,-1.753988862E0,-7.091965675E0,8.542516962E0
3.817281719E0,4.276602745E0,-1.773141623E0,-7.027325153E0,8.415263577E0
3.819726407E0,4.132956505E0,-1.816235304E0,-6.977049351E0,8.310189997E0
3.822171094E0,4.044374466E0,-1.806658983E0,-7.032113075E0,8.310932307E0
3.824616615E0,4.018039703E0,-1.792294383E0,-7.125483036E0,8.374334046E0
3.827062084E0,4.015645504E0,-1.773141623E0,-7.333769798E0,8.547141012E0
3.829506824E0,4.089862823E0,-1.725259542E0,-7.582756042E0,8.786449090E0
3.831951511E0,4.166473866E0,-1.706106782E0,-7.862865448E0,9.060626793E0
3.834397032E0,4.276602745E0,-1.643860221E0,-8.178886414E0,9.374742153E0
3.836842501E0,4.460947990E0,-1.663012981E0,-8.502090454E0,9.744291213E0
3.839287188E0,4.614170074E0,-1.655830741E0,-8.825293541E0,1.009545180E1
3.841731876E0,4.796121597E0,-1.651042581E0,-9.107796669E0,1.042500284E1
3.844177397E0,4.956526756E0,-1.684559941E0,-9.366358757E0,1.073003150E1
3.846622865E0,5.076231480E0,-1.746806502E0,-9.548311234E0,1.095398130E1
3.849067605E0,5.186360359E0,-1.828205824E0,-9.701533318E0,1.115170027E1
3.851512292E0,5.248606682E0,-1.909605265E0,-9.768568039E0,1.125252798E1
3.853957813E0,5.282123566E0,-1.995792747E0,-9.768568039E0,1.128312632E1
3.856403282E0,5.301276684E0,-2.053251028E0,-9.749415398E0,1.128585286E1
3.858848022E0,5.327611446E0,-2.105921507E0,-9.672803879E0,1.124195197E1
3.861292709E0,5.325217724E0,-2.172955990E0,-9.581828117E0,1.117546919E1
3.863738230E0,5.320429802E0,-2.201685429E0,-9.457335472E0,1.107228911E1
3.866183699E0,5.286911964E0,-2.230414629E0,-9.306507111E0,1.093330975E1
3.868628386E0,5.274941444E0,-2.251961231E0,-9.172436714E0,1.081803734E1
3.871073074E0,5.248606682E0,-2.287872791E0,-9.019215584E0,1.068309336E1
3.873518594E0,5.241424084E0,-2.304631472E0,-8.916269302E0,1.059640085E1
3.875964063E0,5.255788803E0,-2.321390390E0,-8.830080986E0,1.053482318E1
3.878408803E0,5.313247204E0,-2.347725391E0,-8.767834663E0,1.051747760E1
3.880853490E0,5.365917206E0,-2.369272232E0,-8.758257866E0,1.054104355E1
3.883299011E0,5.490410805E0,-2.388425112E0,-8.736711502E0,1.059147361E1
3.885744480E0,5.617297649E0,-2.438701153E0,-8.763047218E0,1.069075735E1
3.888189219E0,5.758549690E0,-2.467430353E0,-8.772623062E0,1.077998249E1
3.890633907E0,5.895013332E0,-2.488977432E0,-8.794170380E0,1.087582749E1
3.893079376E0,6.017112255E0,-2.534465075E0,-8.815716743E0,1.097023312E1
3.895524897E0,6.100905418E0,-2.558406115E0,-8.813323021E0,1.102003409E1
3.897969584E0,6.151181698E0,-2.625440836E0,-8.770229340E0,1.102936528E1
3.900414272E0,6.139211178E0,-2.706840038E0,-8.688830376E0,1.097782630E1
3.902859792E0,6.167940617E0,-2.773874998E0,-8.557153702E0,1.090700479E1
3.905305261E0,6.199063778E0,-2.850486040E0,-8.387172699E0,1.081195303E1
3.907750001E0,6.256522179E0,-2.922309160E0,-8.217191696E0,1.073341511E1
3.910194688E0,6.311586380E0,-3.025255442E0,-7.996934891E0,1.062728850E1
3.912640209E0,6.397774220E0,-3.128201485E0,-7.810195446E0,1.056959377E1
3.915085678E0,6.500720024E0,-3.257482767E0,-7.606697083E0,1.052294613E1
3.917530417E0,6.618031025E0,-3.377187729E0,-7.381651402E0,1.047341917E1
3.919975105E0,6.785618305E0,-3.480134010E0,-7.235611439E0,1.051237468E1
3.922420574E0,6.936446190E0,-3.578292131E0,-7.142241478E0,1.057970102E1
3.924866094E0,7.125580311E0,-3.640538931E0,-7.027325153E0,1.064944681E1
3.927310782E0,7.274013996E0,-3.719544172E0,-6.972260475E0,1.074051696E1
3.929755469E0,7.396112919E0,-3.784184456E0,-6.929167271E0,1.081831306E1
3.932200990E0,7.458359718E0,-3.824884415E0,-6.854949951E0,1.082807505E1
3.934646459E0,7.455965519E0,-3.846431017E0,-6.811856270E0,1.080684224E1
3.937091199E0,7.369778156E0,-3.858401537E0,-6.737638950E0,1.070498347E1
3.939535886E0,7.206979275E0,-3.865584135E0,-6.670604706E0,1.055368458E1
3.941981407E0,7.005875111E0,-3.875160217E0,-6.574840546E0,1.035990738E1
3.944426876E0,6.783223629E0,-3.875160217E0,-6.491046906E0,1.015690304E1
3.946871563E0,6.507902622E0,-3.903889656E0,-6.419224262E0,9.939798344E0
3.949316251E0,6.304404259E0,-3.932618856E0,-6.373735905E0,9.789561456E0
3.951761772E0,6.151181698E0,-3.994865417E0,-6.385706425E0,9.724876993E0
3.954207292E0,6.120058537E0,-4.061899662E0,-6.414435387E0,9.751878111E0
3.956651980E0,6.165545940E0,-4.119358540E0,-6.491046906E0,9.854783684E0
3.959096667E0,6.316374779E0,-4.195969105E0,-6.637087345E0,1.007738436E1
3.961542188E0,6.469596863E0,-4.212728024E0,-6.742427349E0,1.025002866E1
3.963987657E0,6.704218864E0,-4.270186424E0,-6.823826790E0,1.047595603E1
3.966432397E0,6.960387230E0,-4.263004303E0,-6.864526749E0,1.066498587E1
3.968877084E0,7.214161873E0,-4.210334301E0,-6.864526749E0,1.081169616E1
3.971322605E0,7.460753441E0,-4.157663822E0,-6.756792068E0,1.089051190E1
3.973768074E0,7.748045444E0,-4.045141220E0,-6.510199547E0,1.089853540E1
3.976212761E0,7.992243290E0,-3.958953857E0,-6.237272739E0,1.088360417E1
3.978657449E0,8.310658455E0,-3.851219416E0,-5.909281254E0,1.090039173E1
3.981102969E0,8.664984703E0,-3.769819975E0,-5.528619289E0,1.094801963E1
3.983548490E0,8.990582466E0,-3.729120255E0,-5.102469444E0,1.098963627E1
3.985993178E0,9.292238235E0,-3.709967613E0,-4.664349556E0,1.103928023E1
3.988437865E0,9.546013832E0,-3.688420534E0,-4.190318108E0,1.105846246E1
3.990883386E0,9.701629639E0,-3.690814734E0,-3.730650902E0,1.103002662E1
3.993328855E0,9.823728561E0,-3.705179214E0,-3.335624695E0,1.101636909E1
3.995773594E0,9.874004364E0,-3.719544172E0,-2.976510048E0,1.096314659E1
3.998218282E0,9.830910683E0,-3.721938133E0,-2.722735405E0,1.085877140E1
4.000663803E0,9.730359077E0,-3.757849693E0,-2.524025440E0,1.073182308E1
4.003109272E0,9.557983398E0,-3.721938133E0,-2.461778641E0,1.054837543E1
4.005553959E0,9.330544472E0,-3.719544172E0,-2.404320240E0,1.032835054E1
4.007998647E0,9.091135025E0,-3.733908653E0,-2.488113880E0,1.013812214E1
4.010444167E0,8.842148781E0,-3.824884415E0,-2.619789124E0,9.983818453E0
4.012889636E0,8.590767860E0,-3.901495457E0,-2.787375927E0,9.838314072E0
4.015334376E0,8.365722656E0,-4.002047539E0,-3.005239010E0,9.748495349E0
4.017779063E0,8.178982735E0,-4.104993820E0,-3.254225254E0,9.712708934E0
4.020224584E0,7.987455845E0,-4.246245384E0,-3.491240978E0,9.696329940E0
4.022670053E0,7.815080166E0,-4.375526905E0,-3.723468781E0,9.699738834E0
4.025114792E0,7.657069683E0,-4.488049507E0,-3.998789787E0,9.734660974E0
4.027559480E0,7.501453876E0,-4.567054749E0,-4.235805988E0,9.750479563E0
4.030005001E0,7.331472874E0,-4.626907349E0,-4.482398033E0,9.759644370E0
4.032450469E0,7.178250313E0,-4.617331028E0,-4.695473194E0,9.741380389E0
4.034895157E0,7.046574593E0,-4.602966309E0,-4.932488441E0,9.755560186E0
4.037339844E0,6.929263592E0,-4.555084229E0,-5.167109966E0,9.770491884E0
4.039785365E0,6.890958309E0,-4.466502190E0,-5.377790928E0,9.816087993E0
4.042230834E0,6.898140430E0,-4.325250626E0,-5.574107170E0,9.867259250E0
