"Time (s)","Gyroscope x (rad/s)","Gyroscope y (rad/s)","Gyroscope z (rad/s)","Absolute (rad/s)"
1.087287120E-1,-1.951451227E-2,-2.678100467E-1,-1.284787357E-1,2.976740211E-1
1.111729310E-1,-1.279500127E-2,-2.458189130E-1,-1.272570193E-1,2.771010628E-1
1.136179310E-1,-4.242895171E-3,-2.256603688E-1,-1.272570193E-1,2.591041358E-1
1.160637640E-1,1.865752041E-3,-2.061126977E-1,-1.260352880E-1,2.416005360E-1
1.185087640E-1,7.974399254E-3,-1.841215640E-1,-1.223700941E-1,2.212211141E-1
1.209529830E-1,1.591563970E-2,-1.633521765E-1,-1.211483628E-1,2.039955072E-1
1.233980350E-1,1.896996424E-2,-1.407501698E-1,-1.211483628E-1,1.866745715E-1
1.258438690E-1,2.385688201E-2,-1.212024987E-1,-1.205375046E-1,1.725934139E-1
1.282888690E-1,2.691120654E-2,-1.022657007E-1,-1.187049150E-1,1.589759209E-1
1.307330870E-1,3.057639301E-2,-8.699408174E-2,-1.168723255E-1,1.488691591E-1
1.331781390E-1,3.363071755E-2,-7.294419408E-2,-1.156505942E-1,1.408081694E-1
1.356239210E-1,3.363071755E-2,-5.828343704E-2,-1.168723255E-1,1.348596481E-1
1.380689730E-1,3.424158320E-2,-4.789873958E-2,-1.138180047E-1,1.281456729E-1
1.405131920E-1,3.485244513E-2,-3.873576596E-2,-1.150397360E-1,1.262905118E-1
1.429581920E-1,3.424158320E-2,-3.507057950E-2,-1.144288629E-1,1.244845221E-1
1.454040250E-1,3.363071755E-2,-3.262712061E-2,-1.150397360E-1,1.242163235E-1
1.478490250E-1,3.424158320E-2,-2.835106663E-2,-1.150397360E-1,1.233304904E-1
1.502932960E-1,3.363071755E-2,-2.529674210E-2,-1.174831837E-1,1.247928235E-1
1.527382960E-1,3.179812431E-2,-2.040982433E-2,-1.174831837E-1,1.234098055E-1
1.551841290E-1,3.057639301E-2,-1.735549979E-2,-1.162614524E-1,1.214613293E-1
1.576291290E-1,3.057639301E-2,-1.185771823E-2,-1.156505942E-1,1.202105704E-1
1.600733480E-1,2.813293412E-2,3.595738672E-4,-1.156505942E-1,1.190237423E-1
1.625184000E-1,3.424158320E-2,9.522547945E-3,-1.144288629E-1,1.198212402E-1
1.649641810E-1,2.752206847E-2,1.685292460E-2,-1.156505942E-1,1.200689188E-1
1.674092330E-1,3.790676966E-2,3.273540735E-2,-1.138180047E-1,1.243505862E-1
1.698534520E-1,3.301985189E-2,4.678529501E-2,-1.138180047E-1,1.274115876E-1
1.722984520E-1,4.645887762E-2,7.060901821E-2,-1.113745421E-1,1.398154119E-1
1.747442850E-1,4.096109420E-2,8.221544325E-2,-1.095419526E-1,1.429567408E-1
1.771892850E-1,5.745444074E-2,1.054283082E-1,-1.058767587E-1,1.600813199E-1
1.796335560E-1,5.623271316E-2,1.176456064E-1,-1.046550274E-1,1.671983298E-1
1.820785560E-1,6.417395175E-2,1.390258670E-1,-1.034332961E-1,1.847834801E-1
1.845243890E-1,6.539568305E-2,1.506322920E-1,-1.003789753E-1,1.924645979E-1
1.869693890E-1,6.539568305E-2,1.652930528E-1,-1.003789753E-1,2.041429091E-1
1.894136080E-1,7.089346647E-2,1.726234257E-1,-9.976811707E-2,2.116090921E-1
1.918586600E-1,6.417395175E-2,1.732342839E-1,-1.040441692E-1,2.120226458E-1
1.943044420E-1,7.333692163E-2,1.787320673E-1,-1.028224379E-1,2.188513416E-1
1.967494940E-1,6.234135479E-2,1.701799631E-1,-1.077093482E-1,2.108292391E-1
1.991937120E-1,7.150433213E-2,1.689582318E-1,-1.119854003E-1,2.149429773E-1
2.016387120E-1,6.111963093E-2,1.524648964E-1,-1.180940568E-1,2.023051166E-1
2.040845460E-1,6.295222044E-2,1.475779712E-1,-1.248135567E-1,2.032748474E-1
2.065295980E-1,5.867617205E-2,1.323063523E-1,-1.321439296E-1,1.959843926E-1
2.089738170E-1,5.317838863E-2,1.188673228E-1,-1.431394964E-1,1.935104568E-1
2.114188170E-1,5.684357882E-2,1.042065769E-1,-1.535241902E-1,1.940615369E-1
2.138646500E-1,4.462628067E-2,8.710236847E-2,-1.645197570E-1,1.914290416E-1
2.163096500E-1,5.501098186E-2,7.855026424E-2,-1.755153239E-1,2.000049526E-1
2.187538690E-1,4.096109420E-2,6.083518267E-2,-1.901760846E-1,2.038275591E-1
2.211989210E-1,4.951319844E-2,5.655913055E-2,-2.017825097E-1,2.153292207E-1
2.236447020E-1,3.973936290E-2,3.945491463E-2,-2.176649868E-1,2.247530951E-1
2.260897540E-1,4.462628067E-2,3.640059382E-2,-2.335474789E-1,2.405429963E-1
2.285339730E-1,4.340455309E-2,2.479416318E-2,-2.506517172E-1,2.555875370E-1
2.309790250E-1,4.096109420E-2,1.807465218E-2,-2.665341794E-1,2.702683354E-1
2.334248060E-1,4.768060520E-2,1.074427553E-2,-2.836383879E-1,2.878187184E-1
2.358698580E-1,4.035022855E-2,1.581305172E-3,-3.007425964E-1,3.034415113E-1
2.383140770E-1,5.378925428E-2,-2.694746945E-3,-3.160142303E-1,3.205706463E-1
2.407590770E-1,4.645887762E-2,-1.491204090E-2,-3.331184387E-1,3.366729726E-1
2.432049100E-1,5.806530640E-2,-1.552290656E-2,-3.496117890E-1,3.547406707E-1
2.456499100E-1,5.134579539E-2,-2.835106663E-2,-3.667159975E-1,3.713768928E-1
2.480941290E-1,5.867617205E-2,-3.018365987E-2,-3.789332807E-1,3.846353828E-1
2.505391810E-1,5.745444074E-2,-4.179009050E-2,-3.923723102E-1,3.987523720E-1
2.529850140E-1,5.623271316E-2,-4.545528069E-2,-4.052004814E-1,4.116014221E-1
2.554300140E-1,6.417395175E-2,-5.034219846E-2,-4.149743021E-1,4.229140627E-1
2.578742330E-1,5.623271316E-2,-5.522911623E-2,-4.247481525E-1,4.319992666E-1
2.603192850E-1,6.783913821E-2,-5.583998188E-2,-4.308567941E-1,4.397247199E-1
2.627650670E-1,5.623271316E-2,-6.255949289E-2,-4.406306446E-1,4.485879770E-1
2.652101190E-1,6.417395175E-2,-6.011603400E-2,-4.467392862E-1,4.553111282E-1
2.676543370E-1,5.317838863E-2,-7.538764179E-2,-4.546805322E-1,4.639457123E-1
2.700993370E-1,5.317838863E-2,-8.332888782E-2,-4.620108902E-1,4.724676785E-1
2.725451710E-1,4.462628067E-2,-1.083743423E-1,-4.754499197E-1,4.896826821E-1
2.749901710E-1,3.729590774E-2,-1.285328716E-1,-4.876672029E-1,5.056985116E-1
2.774343890E-1,3.607417643E-2,-1.621304452E-1,-5.004953742E-1,5.273359907E-1
2.798794420E-1,2.019169182E-2,-2.024475187E-1,-5.182104111E-1,5.567178212E-1
2.823252750E-1,2.324601635E-2,-2.372668087E-1,-5.365363359E-1,5.871176676E-1
2.847702750E-1,2.476616763E-3,-2.843033969E-1,-5.609709620E-1,6.289061738E-1
2.872144940E-1,5.530940369E-3,-3.191227019E-1,-5.817403793E-1,6.635448433E-1
2.896595460E-1,-1.035154238E-2,-3.655484021E-1,-6.067857742E-1,7.084643707E-1
2.921053270E-1,-9.129812941E-3,-3.930373192E-1,-6.318312287E-1,7.441588469E-1
2.945503790E-1,-1.462759450E-2,-4.248022735E-1,-6.587092876E-1,7.839444264E-1
2.969945980E-1,-2.012537792E-2,-4.412956238E-1,-6.843656301E-1,8.145570417E-1
2.994395980E-1,-1.279500127E-2,-4.510694742E-1,-7.094110847E-1,8.407683805E-1
3.018854310E-1,-1.890364848E-2,-4.541237950E-1,-7.344565392E-1,8.637199645E-1
3.043304310E-1,6.440225989E-4,-4.486260116E-1,-7.576693892E-1,8.805274649E-1
3.067747020E-1,3.087481484E-3,-4.498477280E-1,-7.784388065E-1,8.990770192E-1
3.092197020E-1,3.118725866E-2,-4.351869822E-1,-7.949321270E-1,9.067951484E-1
3.116655350E-1,4.035022855E-2,-4.296891987E-1,-8.108146191E-1,9.185212545E-1
3.141105350E-1,6.356308609E-2,-4.070872068E-1,-8.230319023E-1,9.204030487E-1
3.165547540E-1,7.333692163E-2,-3.881503940E-1,-8.346383572E-1,9.233960254E-1
3.189998060E-1,8.311075717E-2,-3.576071560E-1,-8.425796032E-1,9.190923042E-1
3.214455870E-1,9.593892097E-2,-3.295073807E-1,-8.499099612E-1,9.165840565E-1
3.238906390E-1,9.654978663E-2,-3.026293516E-1,-8.584620953E-1,9.153488705E-1
3.263348580E-1,1.167083159E-1,-2.775838673E-1,-8.645707369E-1,9.155087075E-1
3.287798580E-1,1.167083159E-1,-2.684209049E-1,-8.737336993E-1,9.214560166E-1
3.312256920E-1,1.417537779E-1,-2.537601590E-1,-8.792314529E-1,9.260325587E-1
3.336706920E-1,1.460298300E-1,-2.568144798E-1,-8.865618706E-1,9.344893465E-1
3.361149620E-1,1.692426950E-1,-2.537601590E-1,-8.926705122E-1,9.433440260E-1
3.385599620E-1,1.796273887E-1,-2.604796588E-1,-8.993899822E-1,9.534243502E-1
3.410057960E-1,1.924555451E-1,-2.604796588E-1,-9.061095119E-1,9.622490514E-1
3.434507960E-1,2.089488953E-1,-2.641448677E-1,-9.134398699E-1,9.735525399E-1
3.458950140E-1,2.107814997E-1,-2.684209049E-1,-9.207702875E-1,9.819860209E-1
3.483400670E-1,2.297182977E-1,-2.641448677E-1,-9.293223619E-1,9.930675001E-1
3.507859000E-1,2.266639769E-1,-2.671991885E-1,-9.421505332E-1,1.005196295E0
3.532309000E-1,2.449899167E-1,-2.623122633E-1,-9.549787045E-1,1.020201994E0
3.556751190E-1,2.462116480E-1,-2.781947553E-1,-9.696394205E-1,1.038370408E0
3.581201190E-1,2.657592893E-1,-2.879685760E-1,-9.843001962E-1,1.059434178E0
3.605659520E-1,2.785874605E-1,-3.160683811E-1,-1.003237128E0,1.088115311E0
3.630110040E-1,2.914156318E-1,-3.380594850E-1,-1.017897844E0,1.111450992E0
3.654552230E-1,3.091306984E-1,-3.631049395E-1,-1.031336904E0,1.136249442E0
3.679002230E-1,3.085198402E-1,-3.795982897E-1,-1.045997620E0,1.154725237E0
3.703460560E-1,3.244023323E-1,-3.844852149E-1,-1.054549813E0,1.168392512E0
3.727910560E-1,3.176828027E-1,-3.942590654E-1,-1.064323545E0,1.178620881E0
3.752353270E-1,3.366196156E-1,-3.869286776E-1,-1.072264791E0,1.188603529E0
3.776803270E-1,3.366196156E-1,-3.875395358E-1,-1.081427813E0,1.197073837E0
3.801261600E-1,3.561672866E-1,-3.698244691E-1,-1.086925626E0,1.202095084E0
3.825711600E-1,3.647193909E-1,-3.612723649E-1,-1.093645096E0,1.208138051E0
3.850153790E-1,3.775475621E-1,-3.435572684E-1,-1.098532081E0,1.211340782E0
3.874604310E-1,3.946517706E-1,-3.343943059E-1,-1.101586342E0,1.216988924E0
3.899062120E-1,4.019821286E-1,-3.264530599E-1,-1.102808118E0,1.218337793E0
3.923512640E-1,4.233624041E-1,-3.197335601E-1,-1.099753737E0,1.221033807E0
3.947954830E-1,4.239732623E-1,-3.227878809E-1,-1.094866872E0,1.217652993E0
3.972404830E-1,4.435209334E-1,-3.185118139E-1,-1.083871245E0,1.213646353E0
3.996863170E-1,4.398557544E-1,-3.301182687E-1,-1.071653962E0,1.204530353E0
4.021313170E-1,4.514621794E-1,-3.221770227E-1,-1.056993246E0,1.193671167E0
4.045755870E-1,4.514621794E-1,-3.270639181E-1,-1.037445545E0,1.177744525E0
4.070205870E-1,4.563491046E-1,-3.215661347E-1,-1.016676188E0,1.159866266E0
4.094664210E-1,4.655120671E-1,-3.179009557E-1,-9.928523302E-1,1.141717238E0
4.119114210E-1,4.618468881E-1,-3.130140305E-1,-9.690285921E-1,1.118166689E0
4.143556390E-1,4.722315669E-1,-2.995750308E-1,-9.427614212E-1,1.096150970E0
4.168006920E-1,4.557382464E-1,-2.867468596E-1,-9.177159667E-1,1.064013020E0
4.192464730E-1,4.587925673E-1,-2.598688006E-1,-8.883944154E-1,1.033086178E0
4.216915250E-1,4.374122918E-1,-2.507058382E-1,-8.633489609E-1,9.997771544E-1
4.241357440E-1,4.374122918E-1,-2.403211296E-1,-8.358600736E-1,9.735223782E-1
4.265807440E-1,4.227515459E-1,-2.476515025E-1,-8.077602983E-1,9.447363842E-1
4.290265770E-1,4.087016582E-1,-2.513166964E-1,-7.790496349E-1,9.149401407E-1
4.314715770E-1,3.958734870E-1,-2.678100467E-1,-7.503390312E-1,8.896329021E-1
4.339158480E-1,3.732714951E-1,-2.898011804E-1,-7.216283679E-1,8.625913485E-1
4.363608480E-1,3.671628535E-1,-3.099597096E-1,-6.910851598E-1,8.417138948E-1
4.388066810E-1,3.415065408E-1,-3.331725895E-1,-6.623744965E-1,8.163152978E-1
4.412516810E-1,3.402847946E-1,-3.398920894E-1,-6.324421167E-1,7.945460370E-1
4.436959000E-1,3.201262653E-1,-3.478333354E-1,-6.055640578E-1,7.682295771E-1
4.461409520E-1,3.213479817E-1,-3.288965225E-1,-5.750208497E-1,7.362651869E-1
4.485867850E-1,3.121850193E-1,-3.038510680E-1,-5.487536788E-1,7.006536646E-1
4.510317850E-1,3.115741611E-1,-2.604796588E-1,-5.218756199E-1,6.612732212E-1
4.534760040E-1,3.146284819E-1,-2.109996229E-1,-4.980519116E-1,6.257536489E-1
4.559210040E-1,3.085198402E-1,-1.499131471E-1,-4.785042405E-1,5.887484621E-1
4.583668370E-1,3.201262653E-1,-8.516147733E-2,-4.583457112E-1,5.655210818E-1
4.608118890E-1,3.079089820E-1,-3.262712061E-2,-4.449066818E-1,5.420465162E-1
4.632561080E-1,3.237914443E-1,2.296156995E-2,-4.320785105E-1,5.404257325E-1
4.657011080E-1,3.134067655E-1,5.411566794E-2,-4.223046899E-1,5.286715022E-1
4.681469420E-1,3.256240487E-1,8.465890586E-2,-4.106982648E-1,5.309154511E-1
4.705919420E-1,3.225697279E-1,9.748706222E-2,-4.027570188E-1,5.251363374E-1
4.730361600E-1,3.292892277E-1,1.121478230E-1,-3.948157728E-1,5.262015052E-1
4.754812120E-1,3.366196156E-1,1.219216585E-1,-3.868745267E-1,5.271143669E-1
4.779269940E-1,3.360087574E-1,1.378041357E-1,-3.801550269E-1,5.257468110E-1
4.803720460E-1,3.488368988E-1,1.610170007E-1,-3.722137809E-1,5.349362160E-1
4.828162640E-1,3.408956528E-1,1.872841865E-1,-3.654942811E-1,5.337333436E-1
4.852613170E-1,3.561672866E-1,2.337098867E-1,-3.575530350E-1,5.561651014E-1
4.877070980E-1,3.506695032E-1,2.789138854E-1,-3.520552516E-1,5.698288832E-1
4.901521500E-1,3.665519953E-1,3.430546820E-1,-3.416705430E-1,6.072772349E-1
4.925963690E-1,3.720497787E-1,4.041411281E-1,-3.361727595E-1,6.440211281E-1
4.950413690E-1,3.903757036E-1,4.762232006E-1,-3.276206553E-1,6.975077207E-1
4.974872020E-1,4.105342329E-1,5.458617806E-1,-3.166250885E-1,7.528312471E-1
4.999322020E-1,4.251950085E-1,6.185547113E-1,-3.068512678E-1,8.108997637E-1
5.023764210E-1,4.545165002E-1,6.967453957E-1,-2.921904922E-1,8.817112220E-1
5.048214730E-1,4.667337835E-1,7.676056623E-1,-2.775297463E-1,9.402561553E-1
5.072673060E-1,5.003313422E-1,8.500724435E-1,-2.549277544E-1,1.018794764E0
5.097123060E-1,5.082725883E-1,9.239870310E-1,-2.317148745E-1,1.079715166E0
5.121565250E-1,5.345397592E-1,1.010118961E0,-1.999499202E-1,1.160195260E0
5.146015770E-1,5.485896468E-1,1.081590176E0,-1.651306301E-1,1.223950993E0
5.170473580E-1,5.681373477E-1,1.164667726E0,-1.254244149E-1,1.301907155E0
5.194924100E-1,5.827981234E-1,1.239804149E0,-8.144217730E-2,1.372370507E0
5.219366290E-1,5.858524442E-1,1.317383885E0,-3.501644731E-2,1.442203016E0
5.243816290E-1,5.992914438E-1,1.393741965E0,1.873964630E-2,1.517240282E0
5.268274620E-1,5.901284814E-1,1.456050277E0,7.066313922E-2,1.572681567E0
5.292724620E-1,5.992914438E-1,1.520801902E0,1.286952943E-1,1.639680194E0
5.317167330E-1,5.852415562E-1,1.557453752E0,1.855057180E-1,1.674091467E0
5.341617330E-1,5.882958770E-1,1.591051340E0,2.459813356E-1,1.714072117E0
5.366075670E-1,5.736351013E-1,1.600214243E0,3.076786399E-1,1.727544210E0
5.390525670E-1,5.638613105E-1,1.605712056E0,3.669325411E-1,1.740945224E0
5.414967850E-1,5.498114228E-1,1.589218736E0,4.292407334E-1,1.735556510E0
5.439418370E-1,5.253767967E-1,1.563562393E0,4.884946048E-1,1.720283440E0
5.463876190E-1,5.088834763E-1,1.531797409E0,5.495811105E-1,1.705111460E0
5.488326710E-1,4.685663879E-1,1.493312955E0,6.070023775E-1,1.678686965E0
5.512768890E-1,4.459643960E-1,1.460326314E0,6.656454206E-1,1.665689350E0
5.537218890E-1,3.970952332E-1,1.410846233E0,7.194014788E-1,1.632700281E0
5.561677230E-1,3.689954281E-1,1.372972608E0,7.713249922E-1,1.617452828E0
5.586127750E-1,3.250131905E-1,1.324714303E0,8.220267892E-1,1.592554426E0
5.610569940E-1,2.859178483E-1,1.286229849E0,8.727285266E-1,1.580440230E0
5.635019940E-1,2.480442226E-1,1.238582373E0,9.191542864E-1,1.562196157E0
5.659478270E-1,1.997859329E-1,1.193989277E0,9.613039494E-1,1.545842843E0
5.683928270E-1,1.649666429E-1,1.150007010E0,1.002231836E0,1.534339848E0
5.708370460E-1,1.124322638E-1,1.096861720E0,1.038883686E0,1.514934309E0
5.732820980E-1,8.249989897E-2,1.050436020E0,1.072481155E0,1.503475272E0
5.757279310E-1,2.874379978E-2,9.966799021E-1,1.101802707E0,1.485989986E0
5.781729310E-1,-5.464624614E-3,9.600280523E-1,1.131124258E0,1.483619160E0
5.806171500E-1,-5.860985443E-2,9.172675610E-1,1.158613086E0,1.478918245E0
5.830622020E-1,-1.038138419E-1,8.946655393E-1,1.184880257E0,1.488336307E0
5.855079830E-1,-1.526830196E-1,8.683983684E-1,1.210536599E0,1.497606987E0
5.879530350E-1,-2.052173764E-1,8.494615555E-1,1.232527733E0,1.510901624E0
5.903972540E-1,-2.406475395E-1,8.280813098E-1,1.258794904E0,1.525842228E0
5.928422540E-1,-2.931819260E-1,7.975380421E-1,1.280175209E0,1.536512654E0
5.952880870E-1,-3.200599551E-1,7.755469084E-1,1.301555514E0,1.548534190E0
5.977330870E-1,-3.707617223E-1,7.419493794E-1,1.323546648E0,1.561963145E0
6.001773580E-1,-3.970289230E-1,7.230125666E-1,1.347370267E0,1.579805613E0
6.026223580E-1,-4.416220486E-1,6.973562241E-1,1.368750572E0,1.598378511E0
6.050681920E-1,-4.721652865E-1,6.863606572E-1,1.390130877E0,1.620646435E0
6.075131920E-1,-5.057628155E-1,6.716999412E-1,1.412122011E0,1.643491835E0
6.099574100E-1,-5.460799336E-1,6.704781651E-1,1.432891369E0,1.673595512E0
6.124024620E-1,-5.699036121E-1,6.710890532E-1,1.456715107E0,1.702107384E0
6.148482440E-1,-6.035012007E-1,6.649804115E-1,1.478095412E0,1.729502441E0
6.172932960E-1,-6.102207303E-1,6.655912995E-1,1.500697374E0,1.751420488E0
6.197375140E-1,-6.395422220E-1,6.582608819E-1,1.523299336E0,1.778415731E0
6.221825140E-1,-6.462617517E-1,6.729216576E-1,1.549566507E0,1.808765924E0
6.246283480E-1,-6.737506390E-1,6.857498288E-1,1.572779417E0,1.843319789E0
6.270734000E-1,-6.951308846E-1,7.181256413E-1,1.600268364E0,1.886735334E0
6.295176190E-1,-7.238415480E-1,7.511123419E-1,1.623481154E0,1.929716921E0
6.319626190E-1,-7.549956441E-1,7.847098708E-1,1.647304893E0,1.974690207E0
6.344084520E-1,-7.696564198E-1,8.073118925E-1,1.671739459E0,2.009685626E0
6.368534520E-1,-7.989779115E-1,8.176965714E-1,1.690676332E0,2.040926222E0
6.392976710E-1,-8.075299859E-1,8.286921382E-1,1.709002256E0,2.063861442E0
6.417427230E-1,-8.386840820E-1,8.268595338E-1,1.723662972E0,2.087606697E0
6.441885040E-1,-8.460144997E-1,8.250269890E-1,1.736491203E0,2.100431328E0
6.466335560E-1,-8.539557457E-1,7.743251920E-1,1.744432330E0,2.090900302E0
6.490777750E-1,-8.179147243E-1,6.692564487E-1,1.751762748E0,2.045864466E0
6.515228270E-1,-7.745433450E-1,5.202054381E-1,1.757260561E0,1.989596886E0
6.539686080E-1,-7.342262268E-1,3.674892485E-1,1.762758374E0,1.944595996E0
6.564136600E-1,-7.012395263E-1,2.282121032E-1,1.773143053E0,1.920378589E0
6.588578790E-1,-7.220089436E-1,1.249759793E-1,1.783527732E0,1.928182326E0
6.613028790E-1,-7.659912109E-1,1.011522561E-1,1.796966791E0,1.956032710E0
6.637487120E-1,-8.625078201E-1,1.274194419E-1,1.805518866E0,2.005007189E0
6.661937120E-1,-9.645222425E-1,1.872841865E-1,1.804908037E0,2.055011325E0
6.686379310E-1,-1.059206247E0,2.453163415E-1,1.794523239E0,2.098192469E0
6.710829830E-1,-1.123347044E0,2.813573182E-1,1.772532225E0,2.117295683E0
6.735288170E-1,-1.142283916E0,2.734161019E-1,1.737102032E0,2.096924505E0
6.759738170E-1,-1.105021119E0,2.074427158E-1,1.691897988E0,2.031409106E0
6.784180350E-1,-1.016445756E0,8.343717456E-2,1.638752818E0,1.930190285E0
6.808630870E-1,-8.954945207E-1,-6.255949289E-2,1.586829305E0,1.823143266E0
6.833088690E-1,-7.922583818E-1,-1.676282287E-1,1.541625261E0,1.741373312E0
6.857539210E-1,-7.378914356E-1,-1.914519519E-1,1.507416844E0,1.689213771E0
6.881981390E-1,-7.262849808E-1,-1.621304452E-1,1.482371449E0,1.658674552E0
6.906431390E-1,-7.427783608E-1,-1.187590361E-1,1.468932390E0,1.650328988E0
6.930889730E-1,-7.690455317E-1,-9.310272336E-2,1.459769487E0,1.652581648E0
6.955339730E-1,-7.830954194E-1,-1.212024987E-1,1.455493331E0,1.657223376E0
6.979782440E-1,-7.849280238E-1,-2.048909664E-1,1.448163033E0,1.659900141E0
7.004232440E-1,-7.757650614E-1,-3.252313435E-1,1.440221786E0,1.667880587E0
7.028690770E-1,-7.678238153E-1,-4.596215785E-1,1.433502197E0,1.689891700E0
7.053140770E-1,-7.678238153E-1,-5.824053288E-1,1.424950123E0,1.720241911E0
7.077582960E-1,-7.812628150E-1,-6.819763184E-1,1.414565444E0,1.753983660E0
7.102033480E-1,-8.044756651E-1,-7.522257566E-1,1.398682952E0,1.780263656E0
7.126491290E-1,-8.282994032E-1,-8.010949492E-1,1.374859214E0,1.793898235E0
7.150941810E-1,-8.460144997E-1,-8.230860829E-1,1.340650797E0,1.786212695E0
7.175384000E-1,-8.588426709E-1,-8.194208741E-1,1.297890306E0,1.758857739E0
7.199834000E-1,-8.631187081E-1,-7.925428152E-1,1.245966792E0,1.710418447E0
7.224292330E-1,-8.582317829E-1,-7.375649810E-1,1.184880257E0,1.638445946E0
7.248742850E-1,-8.454036117E-1,-6.502113342E-1,1.117685199E0,1.544895546E0
7.273185040E-1,-8.258559704E-1,-5.335361958E-1,1.044992328E0,1.434819822E0
7.297635040E-1,-7.971453071E-1,-3.960916400E-1,9.716886282E-1,1.317766299E0
7.322093370E-1,-7.617151737E-1,-2.488732338E-1,8.959414363E-1,1.202022857E0
7.346543370E-1,-7.171220183E-1,-1.053200215E-1,8.214159012E-1,1.095481802E0
7.370985560E-1,-6.658093929E-1,2.418330126E-2,7.536099553E-1,1.005890125E0
7.395436080E-1,-6.089989543E-1,1.292520314E-1,6.906908751E-1,9.298600426E-1
7.419893890E-1,-5.540211797E-1,2.025557905E-1,6.363239288E-1,8.676845384E-1
7.444344420E-1,-5.069845915E-1,2.385968119E-1,5.892873406E-1,8.131552032E-1
7.468786600E-1,-4.685000777E-1,2.349316329E-1,5.532463193E-1,7.620804976E-1
7.493236600E-1,-4.446763694E-1,1.878950447E-1,5.257573724E-1,7.137663735E-1
7.517694940E-1,-4.373459816E-1,1.048174351E-1,5.043771267E-1,6.757621536E-1
7.542145460E-1,-4.489524066E-1,-5.138205830E-3,4.897163510E-1,6.643845039E-1
7.566587640E-1,-4.770522118E-1,-1.340306550E-1,4.781099260E-1,6.885725311E-1
7.591037640E-1,-5.143149495E-1,-2.794164717E-1,4.646708965E-1,7.473369214E-1
7.615495980E-1,-5.521885753E-1,-4.327435195E-1,4.487884045E-1,8.328206340E-1
7.639945980E-1,-5.863969922E-1,-5.842379332E-1,4.231320918E-1,9.296430294E-1
7.664388170E-1,-6.120532751E-1,-7.180173397E-1,3.870910704E-1,1.019802730E0
7.688838690E-1,-6.193836927E-1,-8.224751949E-1,3.394436240E-1,1.084123415E0
7.713297020E-1,-6.138858795E-1,-9.086071253E-1,2.765245438E-1,1.130879571E0
7.737747020E-1,-5.937273502E-1,-9.733587503E-1,2.007773370E-1,1.157692084E0
7.762189210E-1,-5.644058585E-1,-1.013064981E0,1.140345335E-1,1.165271858E0
7.786639730E-1,-5.234779119E-1,-1.024060607E0,1.812878065E-2,1.150242541E0
7.811097540E-1,-4.776630700E-1,-1.008178115E0,-8.938340843E-2,1.119184754E0
7.835548060E-1,-4.269613028E-1,-9.660283923E-1,-2.036150992E-1,1.075623502E0
7.859990250E-1,-3.780921102E-1,-9.073854089E-1,-3.227337301E-1,1.034629878E0
7.884440250E-1,-3.267794847E-1,-8.346924782E-1,-4.449066818E-1,1.000718902E0
7.908898580E-1,-2.754668295E-1,-7.497822642E-1,-5.676904917E-1,9.799632199E-1
7.933348580E-1,-2.229324579E-1,-6.605960131E-1,-6.904742718E-1,9.812444615E-1
7.957791290E-1,-1.624568552E-1,-5.775184631E-1,-8.108146191E-1,1.008632813E0
7.982241290E-1,-9.770520031E-2,-5.023820400E-1,-9.305440784E-1,1.062001084E0
8.006699620E-1,-3.234267235E-2,-4.327435195E-1,-1.044165015E0,1.130749124E0
8.031149620E-1,3.485244513E-2,-3.692136109E-1,-1.152899027E0,1.211077846E0
8.055591810E-1,1.002149731E-1,-3.056836724E-1,-1.257356882E0,1.297856647E0
8.080042330E-1,1.594688594E-1,-2.372668087E-1,-1.351430058E0,1.381335969E0
8.104500140E-1,2.144466788E-1,-1.621304452E-1,-1.435729384E0,1.460682212E0
8.128950670E-1,2.682027519E-1,-8.699408174E-2,-1.509644032E0,1.535749260E0
8.153392850E-1,3.201262653E-1,-1.430117711E-2,-1.575006485E0,1.607274332E0
8.177842850E-1,3.738823533E-1,5.533739924E-2,-1.626929998E0,1.670254909E0
8.202301190E-1,4.319145083E-1,1.152021438E-1,-1.670912266E0,1.729673228E0
8.226751190E-1,4.887249172E-1,1.768994778E-1,-1.700844646E0,1.778487554E0
8.251193370E-1,5.479788184E-1,2.282121032E-1,-1.718559742E0,1.818188422E0
8.275643890E-1,6.066218019E-1,2.819682062E-1,-1.727722645E0,1.852706565E0
8.300102230E-1,6.573235989E-1,3.442763984E-1,-1.727111816E0,1.879764820E0
8.324552230E-1,7.013058662E-1,4.084171951E-1,-1.724057555E0,1.905520658E0
8.348994420E-1,7.422338128E-1,4.646167457E-1,-1.719781399E0,1.929877668E0
8.373444940E-1,7.831616998E-1,5.079881549E-1,-1.712451100E0,1.950354579E0
8.397902750E-1,8.228679299E-1,5.275358558E-1,-1.708175063E0,1.968061929E0
8.422353270E-1,8.625741601E-1,5.226489305E-1,-1.703898907E0,1.980017063E0
8.446795460E-1,9.022803307E-1,4.908839166E-1,-1.702066422E0,1.987990673E0
8.471245460E-1,9.358779192E-1,4.352952540E-1,-1.698401213E0,1.987439588E0
8.495703790E-1,9.645885229E-1,3.650457859E-1,-1.695346832E0,1.984411834E0
8.520154310E-1,9.835253358E-1,2.874659896E-1,-1.689849019E0,1.976246060E0
8.544596500E-1,9.908557534E-1,2.159948200E-1,-1.685572982E0,1.967131201E0
8.569046500E-1,9.908557534E-1,1.549083441E-1,-1.679464340E0,1.956116609E0
8.593504830E-1,9.847470522E-1,1.005413830E-1,-1.678242683E0,1.948418290E0
8.617954830E-1,9.761949778E-1,5.533739924E-2,-1.681907773E0,1.945464628E0
8.642397020E-1,9.670320153E-1,2.051811107E-2,-1.691681623E0,1.948681253E0
8.666847540E-1,9.584798813E-1,-5.749071483E-3,-1.708785892E0,1.959251377E0
8.691305870E-1,9.487060905E-1,-2.529674210E-2,-1.731387854E0,1.974433354E0
8.715755870E-1,9.395430684E-1,-4.667700827E-2,-1.758265972E0,1.994096073E0
8.740198060E-1,9.346562028E-1,-7.966370136E-2,-1.788198352E0,2.019302322E0
8.764648060E-1,9.328235984E-1,-1.315872073E-1,-1.814465523E0,2.044446182E0
8.789106390E-1,9.340453148E-1,-2.030583769E-1,-1.834624052E0,2.068699777E0
8.813556920E-1,9.346562028E-1,-2.879685760E-1,-1.844397902E0,2.087656998E0
8.837999100E-1,9.316018224E-1,-3.698244691E-1,-1.841343522E0,2.096472766E0
8.862449100E-1,9.163302183E-1,-4.351869822E-1,-1.830348015E0,2.092659225E0
8.886907440E-1,8.973934054E-1,-4.944408536E-1,-1.813854575E0,2.083231889E0
8.911357440E-1,8.833435178E-1,-5.506404042E-1,-1.790641785E0,2.071207046E0
8.935799620E-1,8.729588389E-1,-6.050073504E-1,-1.764374614E0,2.059395253E0
8.960250140E-1,8.686828017E-1,-6.447135806E-1,-1.737496495E0,2.046743629E0
8.984707960E-1,8.668501973E-1,-6.654829383E-1,-1.707564116E0,2.027331254E0
9.009158480E-1,8.656284809E-1,-6.667047143E-1,-1.677020907E0,2.001551140E0
9.033600670E-1,8.668501973E-1,-6.624286175E-1,-1.651364565E0,1.979203341E0
9.058050670E-1,8.711262345E-1,-6.654829383E-1,-1.631206036E0,1.965340069E0
9.082509000E-1,8.790674806E-1,-6.886957884E-1,-1.615323544E0,1.963754484E0
9.106959520E-1,8.796783686E-1,-7.167955637E-1,-1.601273656E0,1.962576682E0
9.131401710E-1,8.625741601E-1,-7.314563394E-1,-1.586612940E0,1.948436085E0
9.155851710E-1,8.363069296E-1,-7.503931522E-1,-1.570119619E0,1.930744619E0
9.180310040E-1,8.118723631E-1,-7.894884944E-1,-1.546295881E0,1.916627186E0
9.204760040E-1,7.935464382E-1,-8.481315374E-1,-1.515141726E0,1.909109086E0
9.229202750E-1,7.746096253E-1,-9.055528045E-1,-1.477879047E0,1.898465810E0
9.253652750E-1,7.532293797E-1,-9.434264302E-1,-1.435118437E0,1.875359394E0
9.278111080E-1,7.263513207E-1,-9.415938258E-1,-1.385638475E0,1.825973482E0
9.302561080E-1,6.982515454E-1,-8.982223868E-1,-1.334325790E0,1.753506200E0
9.327003270E-1,6.811473370E-1,-8.261404037E-1,-1.279958844E0,1.668761308E0
9.351453790E-1,6.835907698E-1,-7.338998318E-1,-1.224981070E0,1.583187899E0
9.375911600E-1,6.982515454E-1,-6.202789545E-1,-1.166948915E0,1.494680893E0
9.400362120E-1,7.184100747E-1,-4.767257869E-1,-1.106473207E0,1.402734284E0
9.424804310E-1,7.458989620E-1,-3.069053888E-1,-1.044775963E0,1.319891280E0
9.449254310E-1,7.782748342E-1,-1.242568195E-1,-9.769698381E-1,1.255237643E0
9.473712640E-1,8.149266839E-1,7.366333902E-2,-9.061095119E-1,1.220887478E0
9.498162640E-1,8.424155712E-1,2.850225270E-1,-8.279188275E-1,1.215052024E0
9.522605350E-1,8.637958765E-1,5.049338341E-1,-7.417868972E-1,1.245531731E0
9.547055350E-1,8.772348762E-1,7.205690742E-1,-6.483246088E-1,1.307320013E0
9.571513690E-1,8.888413310E-1,9.117697477E-1,-5.524188280E-1,1.387994793E0
9.595963690E-1,9.059455395E-1,1.058988094E0,-4.516261816E-1,1.464977581E0
9.620405870E-1,9.261040688E-1,1.160391688E0,-3.496117890E-1,1.525256050E0
9.644856390E-1,9.474843144E-1,1.216591239E0,-2.457647771E-1,1.561480418E0
9.669314210E-1,9.621450901E-1,1.239804149E0,-1.437503546E-1,1.575912963E0
9.693764730E-1,9.627559781E-1,1.242858410E0,-4.540114850E-2,1.572786497E0
9.718206920E-1,9.456517100E-1,1.230030298E0,4.867202044E-2,1.552288845E0
9.742656920E-1,9.108324647E-1,1.209871769E0,1.348039508E-1,1.520387313E0
9.767115250E-1,8.619632721E-1,1.184215426E0,2.105511725E-1,1.479756282E0
9.791565250E-1,8.051528335E-1,1.146341801E0,2.759136856E-1,1.427760124E0
9.816007960E-1,7.465098500E-1,1.091974854E0,3.278371990E-1,1.362777776E0
9.840457960E-1,6.896994114E-1,1.018060207E0,3.675433993E-1,1.283440694E0
9.864916290E-1,6.334998608E-1,9.300956726E-1,3.980866373E-1,1.193680445E0
9.889366290E-1,5.785220265E-1,8.268595338E-1,4.170234501E-1,1.091921692E0
9.913808480E-1,5.247659683E-1,7.132387161E-1,4.286298752E-1,9.837745461E-1
9.938259000E-1,4.703989923E-1,5.990070105E-1,4.280190170E-1,8.736617706E-1
9.962716810E-1,4.129776955E-1,4.908839166E-1,4.194668829E-1,7.664659565E-1
9.987167330E-1,3.500586450E-1,3.974216282E-1,4.035844207E-1,6.658568841E-1
1.001160952E0,2.865287066E-1,3.222852647E-1,3.803715408E-1,5.750208697E-1
1.003605952E0,2.193336040E-1,2.715834975E-1,3.510500491E-1,4.950767243E-1
1.006051785E0,1.570253968E-1,2.477597743E-1,3.198959529E-1,4.340222364E-1
1.008496785E0,1.038801596E-1,2.428728789E-1,2.856875360E-1,3.890959921E-1
1.010941056E0,6.417395175E-2,2.581444681E-1,2.539225519E-1,3.677411111E-1
1.013386056E0,3.851763532E-2,2.886877060E-1,2.215467393E-1,3.659332692E-1
1.015831889E0,2.446774766E-2,3.363351524E-1,1.934469640E-1,3.887695118E-1
1.018276889E0,1.530477498E-2,4.053628743E-1,1.714558303E-1,4.403979992E-1
1.020721108E0,9.196128696E-3,4.994360507E-1,1.561842114E-1,5.233683649E-1
1.023166160E0,-1.799436286E-3,6.130568981E-1,1.506864280E-1,6.313068967E-1
1.025611942E0,-1.218413655E-2,7.388950586E-1,1.543516219E-1,7.549429012E-1
1.028056994E0,-1.462759450E-2,8.580136299E-1,1.659580469E-1,8.740385741E-1
1.030501212E0,-9.129812941E-3,9.679692984E-1,1.873383224E-1,9.859734089E-1
1.032946212E0,-3.021165729E-3,1.065707684E0,2.197141498E-1,1.088125132E0
1.035392046E0,-1.799436286E-3,1.159169912E0,2.618637979E-1,1.188381577E0
1.037837098E0,-5.777068436E-4,1.241636753E0,3.113438487E-1,1.280077010E0
1.040281317E0,-2.410301007E-3,1.310664415E0,3.675433993E-1,1.361225613E0
1.042726317E0,-6.686354056E-3,1.361366153E0,4.298515916E-1,1.427632621E0
1.045172150E0,-1.584932581E-2,1.398628950E0,4.994901717E-1,1.485228795E0
1.047617150E0,-3.234267235E-2,1.424285293E0,5.746265650E-1,1.536173926E0
1.050061369E0,-5.738812685E-2,1.441389441E0,6.522063613E-1,1.583120355E0
1.052506421E0,-9.404000640E-2,1.456050277E0,7.328405380E-1,1.632783263E0
1.054952202E0,-1.349679381E-1,1.457271934E0,8.146964312E-1,1.674988987E0
1.057397254E0,-1.777284741E-1,1.437113404E0,8.934979439E-1,1.701534873E0
1.059841473E0,-2.119368911E-1,1.388244271E0,9.686343074E-1,1.705987053E0
1.062286473E0,-2.412583977E-1,1.311886191E0,1.039494514E0,1.691094273E0
1.064732306E0,-2.718016505E-1,1.220256448E0,1.101802707E0,1.666394653E0
1.067177358E0,-3.078426719E-1,1.117631197E0,1.156780481E0,1.637683634E0
1.069621577E0,-3.524357975E-1,1.014394999E0,1.203206301E0,1.612734822E0
1.072066577E0,-4.049701691E-1,9.197109938E-1,1.242301583E0,1.597868071E0
1.074512410E0,-4.709435403E-1,8.348007798E-1,1.275899172E0,1.595806648E0
1.076957410E0,-5.411930084E-1,7.633296251E-1,1.302777171E0,1.603992003E0
1.079401629E0,-6.144967675E-1,7.052974701E-1,1.325990081E0,1.622744741E0
1.081846681E0,-6.853570938E-1,6.600934863E-1,1.343094230E0,1.646007250E0
1.084292462E0,-7.488870025E-1,6.283285022E-1,1.360198498E0,1.675042806E0
1.086737514E0,-7.995887995E-1,5.941200852E-1,1.371804953E0,1.695337651E0
1.089181733E0,-8.356297612E-1,5.580790639E-1,1.380967855E0,1.707864619E0
1.091626733E0,-8.600643873E-1,5.202054381E-1,1.387687445E0,1.713476260E0
1.094072567E0,-8.790012002E-1,4.829426706E-1,1.390130877E0,1.714158858E0
1.096517619E0,-8.893858790E-1,4.371278286E-1,1.390741706E0,1.707703274E0
1.098961837E0,-8.942728043E-1,3.827608824E-1,1.387076497E0,1.694169693E0
1.101406837E0,-8.997705579E-1,3.155657649E-1,1.384022236E0,1.680680326E0
1.103852671E0,-9.077118039E-1,2.410402745E-1,1.376080990E0,1.666025217E0
1.106297671E0,-9.199291468E-1,1.616278589E-1,1.369361401E0,1.657571671E0
1.108741889E0,-9.376441836E-1,7.671767473E-2,1.363252759E0,1.656357540E0
1.111186942E0,-9.639113545E-1,-5.749071483E-3,1.353478909E0,1.661644760E0
1.113632775E0,-9.981198311E-1,-7.905283570E-2,1.341872573E0,1.674250444E0
1.116077775E0,-1.041491151E0,-1.376958489E-1,1.328433514E0,1.693635015E0
1.118521994E0,-1.090971231E0,-1.816781163E-1,1.310718417E0,1.714995025E0
1.120967046E0,-1.137396932E0,-2.164974064E-1,1.285673022E0,1.730172832E0
1.123412827E0,-1.175270557E0,-2.525384426E-1,1.260016680E0,1.741458751E0
1.125857879E0,-1.196650863E0,-2.977424264E-1,1.228862524E0,1.740898315E0
1.128302098E0,-1.195429087E0,-3.600506186E-1,1.196486712E0,1.729239023E0
1.130747098E0,-1.172216296E0,-4.394630492E-1,1.162278295E0,1.708247538E0
1.133192931E0,-1.133731723E0,-5.280383825E-1,1.130513310E0,1.685892196E0
1.135637931E0,-1.090360403E0,-6.166138053E-1,1.103635311E0,1.669463774E0
1.138082202E0,-1.045156360E0,-7.021348476E-1,1.079811573E0,1.658715827E0
1.140527202E0,-1.010337114E0,-7.705516815E-1,1.063929081E0,1.657249549E0
1.142973035E0,-9.914003015E-1,-8.133122325E-1,1.052322626E0,1.658835210E0
1.145418035E0,-9.852916598E-1,-8.371359706E-1,1.043770552E0,1.661641734E0
1.147862254E0,-9.810155630E-1,-8.640139699E-1,1.037051082E0,1.668648142E0
1.150307306E0,-9.730743766E-1,-8.970006704E-1,1.029720664E0,1.676844832E0
1.152753087E0,-9.602462053E-1,-9.434264302E-1,1.020557642E0,1.689279167E0
1.155198139E0,-9.437528253E-1,-9.929064512E-1,1.007118702E0,1.700241364E0
1.157642358E0,-9.309247136E-1,-1.031390905E0,9.887928367E-1,1.705315014E0
1.160087358E0,-9.168747663E-1,-1.056436419E0,9.686343074E-1,1.701461039E0
1.162533192E0,-9.046574831E-1,-1.069875360E0,9.387019277E-1,1.686475543E0
1.164978192E0,-8.826663494E-1,-1.082092643E0,8.989957571E-1,1.660788290E0
1.167422462E0,-8.515122533E-1,-1.097364306E0,8.476830721E-1,1.627220984E0
1.169867462E0,-8.118060827E-1,-1.109581590E0,7.853748798E-1,1.583355337E0
1.172313296E0,-7.635477781E-1,-1.119966269E0,7.096276879E-1,1.530000362E0
1.174758296E0,-7.128459811E-1,-1.117522836E0,6.265500784E-1,1.466141767E0
1.177202514E0,-6.615333557E-1,-1.100418687E0,5.349203348E-1,1.390930419E0
1.179647567E0,-6.132750511E-1,-1.067431927E0,4.353493750E-1,1.305774209E0
1.182093348E0,-5.644058585E-1,-1.015508413E0,3.333349824E-1,1.208686693E0
1.184538400E0,-5.149258375E-1,-9.483132958E-1,2.282662541E-1,1.102974255E0
1.186982619E0,-4.648348987E-1,-8.676791787E-1,1.219757795E-1,9.918753606E-1
1.189427619E0,-4.092462063E-1,-7.791038156E-1,1.690705307E-2,8.802108050E-1
1.191873452E0,-3.481597304E-1,-6.893066764E-1,-8.388562500E-2,7.767854852E-1
1.194318452E0,-2.827972174E-1,-5.970661044E-1,-1.816239804E-1,6.851638267E-1
1.196762723E0,-2.174346745E-1,-5.029929280E-1,-2.732537091E-1,6.123294153E-1
1.199207723E0,-1.539047509E-1,-4.095306695E-1,-3.599964976E-1,5.665681953E-1
1.201653556E0,-9.465087205E-2,-3.221770227E-1,-4.387980402E-1,5.525400814E-1
1.204098556E0,-3.784045577E-2,-2.458189130E-1,-5.114908814E-1,5.687545691E-1
1.206542775E0,1.408304740E-2,-1.835107058E-1,-5.799077749E-1,6.084139535E-1
1.208987827E0,5.806530640E-2,-1.383067071E-1,-6.422159672E-1,6.595010793E-1
1.211433608E0,9.654978663E-2,-1.132612675E-1,-7.008589506E-1,7.164867373E-1
1.213878660E0,1.252604276E-1,-1.028765589E-1,-7.546150684E-1,7.718274824E-1
1.216322879E0,1.484732926E-1,-1.114286631E-1,-8.059276938E-1,8.270309023E-1
1.218767879E0,1.643557698E-1,-1.395284384E-1,-8.554077744E-1,8.821584125E-1
1.221213712E0,1.777947992E-1,-1.847324371E-1,-9.030551910E-1,9.387468999E-1
1.223658712E0,1.894012243E-1,-2.445971817E-1,-9.519243836E-1,1.000929886E0
1.226102983E0,2.003967911E-1,-3.130140305E-1,-9.971284270E-1,1.064143673E0
1.228547983E0,2.052837163E-1,-3.826526105E-1,-1.039888978E0,1.126913267E0
1.230993817E0,2.138358206E-1,-4.504586160E-1,-1.080816984E0,1.190295794E0
1.233438817E0,2.242205143E-1,-5.127667785E-1,-1.119912267E0,1.251961698E0
1.235883035E0,2.352160811E-1,-5.665228963E-1,-1.157785892E0,1.310245385E0
1.238328087E0,2.523202896E-1,-6.074507833E-1,-1.197492123E0,1.366253771E0
1.240773869E0,2.712570727E-1,-6.349397302E-1,-1.237198353E0,1.416823427E0
1.243218921E0,2.901938856E-1,-6.459352970E-1,-1.282402277E0,1.464923377E0
1.245663139E0,3.097415566E-1,-6.386048794E-1,-1.328827977E0,1.506499192E0
1.248108139E0,3.323435485E-1,-6.215006709E-1,-1.375253797E0,1.545327902E0
1.250553973E0,3.610542119E-1,-6.050073504E-1,-1.423512101E0,1.588326396E0
1.252999025E0,3.977060914E-1,-5.934008956E-1,-1.468105197E0,1.632674991E0
1.255443244E0,4.484078586E-1,-5.854596496E-1,-1.507200480E0,1.677940969E0
1.257888244E0,5.009422302E-1,-5.799618959E-1,-1.539576411E0,1.719765811E0
1.260334077E0,5.479788184E-1,-5.701880455E-1,-1.561567426E0,1.750396532E0
1.262779077E0,6.096761227E-1,-5.341470242E-1,-1.574395657E0,1.770801994E0
1.265223296E0,6.475497484E-1,-5.017712116E-1,-1.578671694E0,1.778566654E0
1.267668348E0,6.903102994E-1,-4.559563994E-1,-1.575617313E0,1.779605143E0
1.270114129E0,7.349033952E-1,-4.095306695E-1,-1.563400030E0,1.775392358E0
1.272559181E0,7.672792673E-1,-3.600506186E-1,-1.545685053E0,1.762809180E0
1.275003400E0,8.118723631E-1,-3.014076054E-1,-1.521861315E0,1.751012604E0
1.277448400E0,8.350852132E-1,-2.513166964E-1,-1.496204972E0,1.731807355E0
1.279894233E0,8.747914433E-1,-1.938954145E-1,-1.467494369E0,1.719417117E0
1.282339285E0,8.931173682E-1,-1.535783261E-1,-1.437561989E0,1.699361470E0
1.284783504E0,9.175519347E-1,-1.120395362E-1,-1.408851266E0,1.685027092E0
1.287228504E0,9.279366732E-1,-8.760493994E-2,-1.380140662E0,1.665391648E0
1.289674337E0,9.328235984E-1,-6.561380625E-2,-1.356316924E0,1.647440632E0
1.292119337E0,9.322127104E-1,-6.011603400E-2,-1.333714962E0,1.628321244E0
1.294563556E0,9.151085019E-1,-7.172246277E-2,-1.317221642E0,1.605503203E0
1.297008608E0,9.077781439E-1,-9.676791728E-2,-1.306836843E0,1.594129143E0
1.299454442E0,8.772348762E-1,-1.517457366E-1,-1.302560806E0,1.577730158E0
1.301899442E0,8.644067049E-1,-2.177191377E-1,-1.298284769E0,1.574847268E0
1.304343660E0,8.265331388E-1,-3.117923141E-1,-1.295841336E0,1.568303620E0
1.306788660E0,8.033202887E-1,-4.022002816E-1,-1.291565299E0,1.573286202E0
1.309234494E0,7.599488497E-1,-4.999386370E-1,-1.279958844E0,1.570272441E0
1.311679546E0,7.141340375E-1,-5.836271048E-1,-1.261022091E0,1.562301102E0
1.314123764E0,6.713734865E-1,-6.636503339E-1,-1.232311368E0,1.552341918E0
1.316568764E0,6.273912191E-1,-7.430627942E-1,-1.200546384E0,1.545015753E0
1.319014598E0,6.084544063E-1,-8.114796281E-1,-1.160840273E0,1.541514220E0
1.321459598E0,5.785220265E-1,-8.762313128E-1,-1.118690610E0,1.534254780E0
1.323903817E0,5.760785937E-1,-9.073854089E-1,-1.071043134E0,1.517349077E0
1.326348869E0,5.553091764E-1,-9.238787293E-1,-1.026450038E0,1.488462250E0
1.328794702E0,5.492005348E-1,-8.945572376E-1,-9.800241590E-1,1.436071457E0
1.331239702E0,5.302637219E-1,-8.572944999E-1,-9.360418916E-1,1.375611826E0
1.333683921E0,5.290420055E-1,-8.145339489E-1,-8.932813406E-1,1.319584234E0
1.336128973E0,5.400375724E-1,-7.784929276E-1,-8.535751700E-1,1.275257773E0
1.338574754E0,5.455353260E-1,-7.436736226E-1,-8.163124323E-1,1.231675784E0
1.341019806E0,5.718025565E-1,-7.088543773E-1,-7.766062021E-1,1.196891760E0
1.343464025E0,5.766894221E-1,-6.844197512E-1,-7.387325764E-1,1.160485633E0
1.345909025E0,5.992914438E-1,-6.453244090E-1,-6.965829134E-1,1.122863118E0
1.348354858E0,5.925719142E-1,-6.056182384E-1,-6.568766832E-1,1.072101628E0
1.350799858E0,5.968480110E-1,-5.451425910E-1,-6.128944755E-1,1.014419849E0
1.353244077E0,5.821872354E-1,-4.889430702E-1,-5.695230365E-1,9.499283089E-1
1.355689129E0,5.724133849E-1,-4.284674823E-1,-5.243190527E-1,8.866520939E-1
1.358134962E0,5.638613105E-1,-3.832634985E-1,-4.791150987E-1,8.332957246E-1
1.360579962E0,5.644721389E-1,-3.484441936E-1,-4.333002567E-1,7.923327988E-1
1.363024181E0,5.614178181E-1,-3.307291269E-1,-3.874853849E-1,7.581006829E-1
1.365469233E0,5.595852137E-1,-3.240095973E-1,-3.398379385E-1,7.304845344E-1
1.367915014E0,5.534765720E-1,-3.215661347E-1,-2.921904922E-1,7.036450657E-1
1.370360067E0,5.394266844E-1,-3.148466349E-1,-2.439321727E-1,6.705314729E-1
1.372804285E0,5.143812299E-1,-3.087379932E-1,-1.975064576E-1,6.315979725E-1
1.375249285E0,4.832271338E-1,-3.001858890E-1,-1.510807425E-1,5.885961447E-1
1.377695119E0,4.508513212E-1,-2.952989638E-1,-1.064876169E-1,5.493705529E-1
1.380140119E0,4.190863371E-1,-2.946881056E-1,-6.433795393E-2,5.163465985E-1
1.382584389E0,3.940408826E-1,-2.971315682E-1,-2.096656151E-2,4.939584827E-1
1.385029389E0,3.659411073E-1,-2.904120386E-1,1.812878065E-2,4.675261477E-1
1.387475223E0,3.378413320E-1,-2.702535093E-1,5.722412467E-2,4.364038557E-1
1.389920223E0,3.109633029E-1,-2.354342043E-1,9.509773552E-2,4.014611060E-1
1.392364442E0,2.840852439E-1,-1.877867579E-1,1.329713613E-1,3.655812840E-1
1.394809494E0,2.608723938E-1,-1.285328716E-1,1.677906513E-1,3.357511096E-1
1.397255275E0,2.456007898E-1,-7.050073147E-2,2.013882101E-1,3.253418390E-1
1.399700327E0,2.339943498E-1,-1.796636544E-2,2.343748957E-1,3.316741440E-1
1.402144546E0,2.284965664E-1,2.907021903E-2,2.655289769E-1,3.515130098E-1
1.404589546E0,2.260531187E-1,7.549594343E-2,2.954613566E-1,3.796011897E-1
1.407035379E0,2.223879248E-1,1.255868375E-1,3.253937364E-1,4.136538728E-1
1.409480379E0,2.162792832E-1,1.866733134E-1,3.559369743E-1,4.564151443E-1
1.411924650E0,2.046728432E-1,2.703617513E-1,3.864802122E-1,5.141530937E-1
1.414369650E0,1.851251721E-1,3.821500242E-1,4.176343083E-1,5.955907872E-1
1.416815483E0,1.655775011E-1,5.238706470E-1,4.506210089E-1,7.105741743E-1
1.419260483E0,1.448080987E-1,6.839172244E-1,4.823859632E-1,8.493576236E-1
1.421704702E0,1.374777257E-1,8.470181227E-1,5.159835815E-1,1.001288611E0
1.424149754E0,1.454189718E-1,1.000956059E0,5.538571477E-1,1.153177111E0
1.426595535E0,1.655775011E-1,1.143287539E0,5.935633779E-1,1.298783966E0
1.429040587E0,1.832925826E-1,1.280732036E0,6.381564736E-1,1.442606808E0
1.431484806E0,2.016185224E-1,1.412678838E0,6.864148378E-1,1.583501455E0
1.433929806E0,2.113923579E-1,1.531186581E0,7.389491796E-1,1.713261499E0
1.436375639E0,2.144466788E-1,1.629535794E0,7.951487303E-1,1.825824687E0
1.438820639E0,2.120032161E-1,1.705283046E0,8.537917733E-1,1.918826731E0
1.441264910E0,1.979533285E-1,1.763315201E0,9.160999656E-1,1.996923926E0
1.443709910E0,1.667992324E-1,1.817682147E0,9.790189862E-1,2.071296345E0
1.446155744E0,1.215952411E-1,1.866551280E0,1.040105343E0,2.140237886E0
1.448600744E0,7.028260082E-2,1.898316264E0,1.101802707E0,2.196022196E0
1.451044962E0,1.896996424E-2,1.901981473E0,1.162278295E0,2.229076988E0
1.453490014E0,-2.562316135E-2,1.873270869E0,1.217867017E0,2.234502264E0
1.455935796E0,-6.777282804E-2,1.817071319E0,1.269179583E0,2.217466605E0
1.458380848E0,-1.154202744E-1,1.748654366E0,1.317438006E0,2.192431716E0
1.460825067E0,-1.710089594E-1,1.678404927E0,1.362031102E0,2.168274864E0
1.463270067E0,-2.272085100E-1,1.603268623E0,1.400515556E0,2.140919851E0
1.465715900E0,-2.876841426E-1,1.523245335E0,1.437167406E0,2.113880003E0
1.468160900E0,-3.542684019E-1,1.449330688E0,1.468932390E0,2.093759277E0
1.470605171E0,-4.208526313E-1,1.382135630E0,1.498864770E0,2.081828868E0
1.473050171E0,-4.856043160E-1,1.319216490E0,1.527575374E0,2.075964889E0
1.475496004E0,-5.582972169E-1,1.274012566E0,1.554453492E0,2.085936111E0
1.477941004E0,-6.328226924E-1,1.246523619E0,1.580109835E0,2.109747089E0
1.480385223E0,-6.969634891E-1,1.215980411E0,1.603322625E0,2.129556269E0
1.482830275E0,-7.427783608E-1,1.162224293E0,1.626535535E0,2.132628155E0
1.485276056E0,-7.800410986E-1,1.100526929E0,1.647304893E0,2.129139978E0
1.487721108E0,-8.154712319E-1,1.035164475E0,1.665019989E0,2.123405375E0
1.490165327E0,-8.496796489E-1,9.643040895E-1,1.680902481E0,2.115956293E0
1.492610327E0,-8.796120286E-1,8.745070100E-1,1.695563197E0,2.100812792E0
1.495056160E0,-9.046574831E-1,7.657730579E-1,1.709002256E0,2.079784184E0
1.497501212E0,-9.321464300E-1,6.436001658E-1,1.721219540E0,2.060513248E0
1.499945431E0,-9.639113545E-1,5.134859681E-1,1.735269427E0,2.050354341E0
1.502390431E0,-1.003006697E0,3.894803822E-1,1.748097539E0,2.052696375E0
1.504836264E0,-1.056151986E0,2.789138854E-1,1.760314822E0,2.071704189E0
1.507281264E0,-1.118460178E0,1.915602386E-1,1.769477844E0,2.102070488E0
1.509725483E0,-1.192374825E0,1.304737628E-1,1.774975657E0,2.142269757E0
1.512170535E0,-1.266289473E0,9.137842059E-2,1.773753881E0,2.181293624E0
1.514616317E0,-1.331041098E0,6.327864528E-2,1.767034411E0,2.213161811E0
1.517061369E0,-1.378077626E0,3.762232512E-2,1.751762748E0,2.229167133E0
1.519505587E0,-1.399457932E0,6.468222942E-3,1.729771614E0,2.225002062E0
1.521950587E0,-1.397625327E0,-3.568144515E-2,1.704726219E0,2.204704335E0
1.524396421E0,-1.365860343E0,-9.371358901E-2,1.676015496E0,2.164112903E0
1.526841473E0,-1.307828188E0,-1.700716764E-1,1.646694064E0,2.109725168E0
1.529285692E0,-1.238189697E0,-2.586470842E-1,1.617983341E0,2.053748313E0
1.531730692E0,-1.172216296E0,-3.295073807E-1,1.595381379E0,2.006964849E0
1.534176525E0,-1.131899238E0,-3.600506186E-1,1.575833678E0,1.973343385E0
1.536621525E0,-1.122736216E0,-3.484441936E-1,1.564227343E0,1.956721019E0
1.539065744E0,-1.134953499E0,-3.062945306E-1,1.555064321E0,1.949400119E0
1.541510796E0,-1.156333804E0,-2.562036216E-1,1.547733903E0,1.948904409E0
1.543956577E0,-1.174048901E0,-2.128322124E-1,1.535516620E0,1.944607842E0
1.546401629E0,-1.181990027E0,-1.871758997E-1,1.518412471E0,1.933316237E0
1.548845848E0,-1.169161916E0,-1.908410788E-1,1.493977904E0,1.906654106E0
1.551290848E0,-1.130677462E0,-2.305472940E-1,1.462212920E0,1.862699708E0
1.553736681E0,-1.075088739E0,-2.977424264E-1,1.426171899E0,1.810644260E0
1.556181733E0,-1.005450130E0,-3.789874315E-1,1.385243893E0,1.753129225E0
1.558625952E0,-9.345898628E-1,-4.681736827E-1,1.341261625E0,1.700478626E0
1.561070952E0,-8.686164618E-1,-5.494186878E-1,1.292392492E0,1.651252193E0
1.563516785E0,-8.148604035E-1,-6.227224469E-1,1.243523359E0,1.611871914E0
1.565961785E0,-7.739324570E-1,-6.862523556E-1,1.189156413E0,1.576073196E0
1.568406004E0,-7.482761145E-1,-7.308455110E-1,1.129291654E0,1.539269938E0
1.570851056E0,-7.336153984E-1,-7.497822642E-1,1.063929081E0,1.494091726E0
1.573296837E0,-7.256741524E-1,-7.436736226E-1,9.887928367E-1,1.434351668E0
1.575741889E0,-7.177329063E-1,-7.198499441E-1,9.044935107E-1,1.360673722E0
1.578186108E0,-6.981852055E-1,-6.831980348E-1,8.073660135E-1,1.267305021E0
1.580631108E0,-6.633659601E-1,-6.355505586E-1,7.022972703E-1,1.156373800E0
1.583076942E0,-6.151075959E-1,-5.805727839E-1,5.886764526E-1,1.030515443E0
1.585521994E0,-5.540211797E-1,-5.213188529E-1,4.701686800E-1,8.942993914E-1
1.587966212E0,-4.843825698E-1,-4.596215785E-1,3.504391909E-1,7.541127872E-1
1.590411212E0,-4.141331315E-1,-3.973133862E-1,2.325423062E-1,6.192254045E-1
1.592857046E0,-3.414402306E-1,-3.417246938E-1,1.183106005E-1,4.973475602E-1
1.595302046E0,-2.772994339E-1,-2.934663594E-1,1.202013530E-2,4.039331180E-1
1.597746264E0,-2.223215997E-1,-2.598688006E-1,-8.632908762E-2,3.527200003E-1
1.600191317E0,-1.752850115E-1,-2.433754504E-1,-1.736827344E-1,3.465864067E-1
1.602637098E0,-1.410765797E-1,-2.470406443E-1,-2.518734336E-1,3.799630348E-1
1.605082150E0,-1.154202744E-1,-2.690317631E-1,-3.221228719E-1,4.352735621E-1
1.607526369E0,-9.953778982E-2,-3.087379932E-1,-3.850419521E-1,5.034721690E-1
1.609971369E0,-9.037481993E-2,-3.649375439E-1,-4.436849654E-1,5.815525492E-1
1.612417202E0,-8.609876782E-2,-4.309109449E-1,-4.974410832E-1,6.637355434E-1
1.614862254E0,-8.304444700E-2,-5.042146444E-1,-5.524188280E-1,7.525259792E-1
1.617306473E0,-7.754666358E-2,-5.805727839E-1,-6.061749458E-1,8.429272255E-1
1.619751473E0,-6.716196239E-2,-6.575416923E-1,-6.617636085E-1,9.353089755E-1
1.622197306E0,-5.616639555E-2,-7.265694141E-1,-7.173523307E-1,1.022571339E0
1.624642306E0,-4.089477658E-2,-7.821581364E-1,-7.741627097E-1,1.101259113E0
1.627086525E0,-2.073624358E-2,-8.224751949E-1,-8.352491856E-1,1.172406346E0
1.629531577E0,-1.188571565E-3,-8.389685154E-1,-8.963356614E-1,1.227716254E0
1.631977358E0,2.202428877E-2,-8.365250826E-1,-9.604764581E-1,1.273881592E0
1.634422410E0,4.768060520E-2,-8.096470237E-1,-1.025228262E0,1.307247005E0
1.636866629E0,7.578038424E-2,-7.632213235E-1,-1.093034267E0,1.335280257E0
1.639311681E0,1.069344804E-1,-7.033565640E-1,-1.163894534E0,1.364109939E0
1.641757462E0,1.405320466E-1,-6.386048794E-1,-1.237198353E0,1.399366004E0
1.644202514E0,1.765730679E-1,-5.726315379E-1,-1.312945485E0,1.443229286E0
1.646646733E0,2.162792832E-1,-5.072689652E-1,-1.388692737E0,1.494177382E0
1.649091733E0,2.541528642E-1,-4.467934072E-1,-1.465661764E0,1.553184610E0
1.651537567E0,2.932482064E-1,-3.960916400E-1,-1.541408896E0,1.618278247E0
1.653982567E0,3.329544365E-1,-3.631049395E-1,-1.610436678E0,1.684105147E0
1.656426785E0,3.781584203E-1,-3.496659398E-1,-1.673966646E0,1.751409259E0
1.658871837E0,4.221406579E-1,-3.502767980E-1,-1.726500988E0,1.811546917E0
1.661317671E0,4.612360001E-1,-3.496659398E-1,-1.767428875E0,1.859787554E0
1.663762671E0,4.960553050E-1,-3.502767980E-1,-1.795528650E0,1.895438692E0
1.666206889E0,5.308746099E-1,-3.472224772E-1,-1.813243747E0,1.921000829E0
1.668651942E0,5.644721389E-1,-3.411138058E-1,-1.818130612E0,1.934059551E0
1.671097723E0,6.017348766E-1,-3.246204853E-1,-1.813243747E0,1.937863826E0
1.673542775E0,6.414411068E-1,-2.904120386E-1,-1.801637292E0,1.934342983E0
1.675986994E0,6.823690534E-1,-2.458189130E-1,-1.782089591E0,1.924031646E0
1.678431994E0,7.281839252E-1,-1.828998476E-1,-1.758876801E0,1.912420399E0
1.680877827E0,7.776639462E-1,-1.089852005E-1,-1.729555249E0,1.899473703E0
1.683322827E0,8.265331388E-1,-2.468587644E-2,-1.697790265E0,1.888453920E0
1.685767046E0,8.735697269E-1,6.755469739E-2,-1.664803624E0,1.881291793E0
1.688212098E0,9.144976139E-1,1.597952694E-1,-1.629373431E0,1.875286163E0
1.690657931E0,9.505386353E-1,2.502032220E-1,-1.592110753E0,1.871080436E0
1.693102931E0,9.792492986E-1,3.235070109E-1,-1.557902336E0,1.868326969E0
1.695547150E0,1.005516529E0,3.766522408E-1,-1.521861315E0,1.862523090E0
1.697992202E0,1.026285887E0,4.041411281E-1,-1.488874555E0,1.852927471E0
1.700437983E0,1.039113998E0,4.047520161E-1,-1.454666138E0,1.832930896E0
1.702883035E0,1.045222640E0,3.821500242E-1,-1.420457721E0,1.804502465E0
1.705327254E0,1.043390036E0,3.332808316E-1,-1.385638475E0,1.766276554E0
1.707772254E0,1.031783700E0,2.679183185E-1,-1.350208282E0,1.720296554E0
1.710218087E0,1.009181619E0,1.891167760E-1,-1.314778090E0,1.668188874E0
1.712663087E0,9.798601866E-1,9.809793532E-2,-1.281791449E0,1.616396767E0
1.715107358E0,9.425973892E-1,3.413898405E-3,-1.250026464E0,1.565588597E0
1.717552358E0,8.973934054E-1,-8.882667124E-2,-1.220704913E0,1.517671106E0
1.719998192E0,8.509677052E-1,-1.816781163E-1,-1.196270347E0,1.479261882E0
1.722443192E0,8.039311171E-1,-2.788056135E-1,-1.174279213E0,1.450161881E0
1.724887410E0,7.642248869E-1,-3.887612820E-1,-1.155953288E0,1.439236956E0
1.727332462E0,7.336816788E-1,-5.152102113E-1,-1.141292572E0,1.451302554E0
1.729778244E0,7.110796571E-1,-6.502113342E-1,-1.126020908E0,1.482002748E0
1.732223296E0,6.884776950E-1,-7.888776064E-1,-1.111971021E0,1.527353582E0
1.734667514E0,6.585453153E-1,-9.098288417E-1,-1.097310305E0,1.570210291E0
1.737112514E0,6.194499731E-1,-1.005734682E0,-1.077151775E0,1.598585771E0
1.739558348E0,5.724133849E-1,-1.074151397E0,-1.054549813E0,1.610445161E0
1.742003348E0,5.290420055E-1,-1.128518462E0,-1.025839090E0,1.614244468E0
1.744447567E0,4.942227006E-1,-1.165170312E0,-9.922414422E-1,1.608235372E0
1.746892619E0,4.679555297E-1,-1.176776767E0,-9.574221373E-1,1.587590339E0
1.749338452E0,4.520730376E-1,-1.159061670E0,-9.177159667E-1,1.545961378E0
1.751783452E0,4.484078586E-1,-1.116912007E0,-8.743445277E-1,1.487629118E0
1.754227671E0,4.563491046E-1,-1.054603815E0,-8.291405439E-1,1.417010146E0
1.756672723E0,4.746750295E-1,-9.739696383E-1,-7.827148438E-1,1.336628507E0
1.759118504E0,4.960553050E-1,-8.737878203E-1,-7.375108600E-1,1.246394115E0
1.761563556E0,5.192681551E-1,-7.650539279E-1,-6.929177046E-1,1.155457431E0
1.764007775E0,5.461462140E-1,-6.642612219E-1,-6.483246088E-1,1.076960285E0
1.766452775E0,5.705807805E-1,-5.732423663E-1,-6.031206250E-1,1.008922061E0
1.768898608E0,5.901284814E-1,-4.895539582E-1,-5.566949248E-1,9.475357206E-1
1.771343608E0,6.011240482E-1,-4.174719155E-1,-5.090474486E-1,8.914943783E-1
1.773787879E0,6.066218019E-1,-3.643266857E-1,-4.577348530E-1,8.427604286E-1
1.776232879E0,6.084544063E-1,-3.319508433E-1,-4.045896232E-1,8.025589636E-1
1.778678712E0,6.047891974E-1,-3.111814559E-1,-3.490009308E-1,7.644642055E-1
1.781123712E0,5.901284814E-1,-2.867468596E-1,-2.934122384E-1,7.187253492E-1
1.783567931E0,5.687482357E-1,-2.598688006E-1,-2.396561205E-1,6.696576777E-1
1.786012983E0,5.473679304E-1,-2.323798835E-1,-1.834565699E-1,6.223089061E-1
1.788458764E0,5.290420055E-1,-2.134430856E-1,-1.315330714E-1,5.854437149E-1
1.790903817E0,5.211007595E-1,-2.109996229E-1,-7.960957289E-2,5.678067687E-1
1.793348035E0,5.198790431E-1,-2.232169062E-1,-3.196212277E-2,5.666759073E-1
1.795793035E0,5.235441923E-1,-2.488732338E-1,1.629618742E-2,5.799154883E-1
1.798238869E0,5.229333639E-1,-2.769730091E-1,6.150017679E-2,5.949416968E-1
1.800683869E0,5.137704015E-1,-2.983532846E-1,1.054824293E-1,6.034080301E-1
1.803128139E0,4.887249172E-1,-3.105705976E-1,1.445777863E-1,5.968323693E-1
1.805573139E0,4.551273584E-1,-3.124031723E-1,1.836731285E-1,5.817838710E-1
1.808018973E0,4.129776955E-1,-3.117923141E-1,2.197141498E-1,5.621737558E-1
1.810463973E0,3.653302491E-1,-3.142357767E-1,2.508682311E-1,5.432726604E-1
1.812908192E0,3.201262653E-1,-3.203444183E-1,2.783571482E-1,5.315863749E-1
1.815353244E0,2.785874605E-1,-3.319508433E-1,3.015699983E-1,5.279647710E-1
1.817799025E0,2.468225062E-1,-3.533311188E-1,3.211176693E-1,5.374763126E-1
1.820244077E0,2.223879248E-1,-3.692136109E-1,3.388327658E-1,5.482542501E-1
1.822688296E0,2.040619850E-1,-3.789874315E-1,3.547152281E-1,5.577595002E-1
1.825133296E0,1.906229556E-1,-3.716570437E-1,3.730411828E-1,5.600230293E-1
1.827579129E0,1.777947992E-1,-3.386703730E-1,3.925888538E-1,5.481191662E-1
1.830024129E0,1.686318219E-1,-2.818599343E-1,4.133582413E-1,5.279647238E-1
1.832468400E0,1.600797176E-1,-2.036692351E-1,4.316841960E-1,5.034460432E-1
1.834913400E0,1.564145386E-1,-1.047091484E-1,4.524535835E-1,4.900446499E-1
1.837359233E0,1.496950239E-1,1.257687248E-2,4.768881798E-1,4.999891138E-1
1.839804233E0,1.362559944E-1,1.567409486E-1,5.007119179E-1,5.420754981E-1
1.842248452E0,1.203735098E-1,3.161766231E-1,5.294225812E-1,6.282879184E-1
1.844693504E0,1.093779430E-1,4.750014246E-1,5.593549609E-1,7.419352128E-1
1.847139285E0,1.105996743E-1,6.112242937E-1,5.917307734E-1,8.578885320E-1
1.849584337E0,1.197626442E-1,7.260668874E-1,6.259391904E-1,9.660828567E-1
1.852028556E0,1.313690841E-1,8.293030262E-1,6.632019281E-1,1.069971094E0
1.854473556E0,1.380885988E-1,9.184892774E-1,7.047407627E-1,1.165911899E0
1.856919389E0,1.368668675E-1,9.869061708E-1,7.505556345E-1,1.247417368E0
1.859364389E0,1.289256215E-1,1.040051341E0,7.988139391E-1,1.317737575E0
1.861808660E0,1.087670773E-1,1.092585683E0,8.495156765E-1,1.388254529E0
1.864253660E0,7.516951859E-2,1.155504823E0,9.014391899E-1,1.467458505E0
1.866699494E0,2.874379978E-2,1.227586865E0,9.515300989E-1,1.553449467E0
1.869144494E0,-2.134710923E-2,1.299057961E0,1.001621008E0,1.640503559E0
1.871588712E0,-6.838369370E-2,1.361366153E0,1.048657417E0,1.719789670E0
1.874033764E0,-1.141985431E-1,1.415122271E0,1.095083237E0,1.792991813E0
1.876479546E0,-1.532938778E-1,1.445665479E0,1.137843728E0,1.846113766E0
1.878924598E0,-1.795610636E-1,1.447498083E0,1.176328182E0,1.873830534E0
1.881368817E0,-1.966652721E-1,1.425506949E0,1.216034412E0,1.884008223E0
1.883813817E0,-2.210998684E-1,1.407181025E0,1.250853658E0,1.895699992E0
1.886259650E0,-2.601952255E-1,1.410846233E0,1.286894679E0,1.927248444E0
1.888704702E0,-3.078426719E-1,1.427950501E0,1.318659663E0,1.967910835E0
1.891148921E0,-3.554901183E-1,1.446887255E0,1.350424647E0,2.010846260E0
1.893593921E0,-4.019158483E-1,1.462158918E0,1.381578803E0,2.051391001E0
1.896039754E0,-4.458980858E-1,1.470100164E0,1.413954616E0,2.087890622E0
1.898484754E0,-4.911020994E-1,1.475597858E0,1.446941257E0,2.124196157E0
1.900928973E0,-5.350843668E-1,1.471932650E0,1.478706241E0,2.153943628E0
1.903374025E0,-5.735688210E-1,1.454828501E0,1.509249449E0,2.173324885E0
1.905819806E0,-6.083881259E-1,1.415733099E0,1.538571000E0,2.177530032E0
1.908264858E0,-6.383205056E-1,1.360755324E0,1.564227343E0,2.169312172E0
1.910709077E0,-6.743615270E-1,1.295392752E0,1.585607529E0,2.155680191E0
1.913154077E0,-7.189546227E-1,1.226365089E0,1.604544401E0,2.143695365E0
1.915599910E0,-7.733215690E-1,1.160391688E0,1.616761684E0,2.135053504E0
1.918044910E0,-8.386840820E-1,1.094418287E0,1.624091983E0,2.130449987E0
1.920489181E0,-9.095444083E-1,1.028444886E0,1.627146363E0,2.128984547E0
1.922934181E0,-9.804047346E-1,9.636932611E-1,1.622870326E0,2.126877110E0
1.925380014E0,-1.048210740E0,8.983307481E-1,1.611874700E0,2.122235599E0
1.927825014E0,-1.106242895E0,8.323573470E-1,1.596603155E0,2.113228272E0
1.930269233E0,-1.149003386E0,7.621079087E-1,1.576444626E0,2.094324451E0
1.932714285E0,-1.172216296E0,6.833063364E-1,1.553231716E0,2.062408145E0
1.935160067E0,-1.177103162E0,5.947309732E-1,1.528186321E0,2.018571331E0
1.937605119E0,-1.165496707E0,5.012686849E-1,1.504362583E0,1.967932837E0
1.940049337E0,-1.143505573E0,4.023085535E-1,1.480538845E0,1.913492211E0
1.942494337E0,-1.121514440E0,3.082353771E-1,1.459769487E0,1.866475460E0
1.944940171E0,-1.102577686E0,2.294338495E-1,1.442665219E0,1.830191351E0
1.947385171E0,-1.094025612E0,1.659039110E-1,1.424339294E0,1.803651455E0
1.949829442E0,-1.093414664E0,1.194781959E-1,1.409067631E0,1.787540840E0
1.952274442E0,-1.100134254E0,8.160458505E-2,1.393185139E0,1.777053605E0
1.954720275E0,-1.105021119E0,3.945491463E-2,1.372415781E0,1.762428279E0
1.957165275E0,-1.103799343E0,-1.430117711E-2,1.349202871E0,1.743251531E0
1.959609494E0,-1.087306023E0,-9.188099205E-2,1.321103096E0,1.713473050E0
1.962054546E0,-1.057984591E0,-2.000040561E-1,1.284451246E0,1.676051318E0
1.964500327E0,-1.015834928E0,-3.270639181E-1,1.242301583E0,1.637743762E0
1.966945379E0,-9.742960930E-1,-4.571781158E-1,1.192210674E0,1.606122971E0
1.969389598E0,-9.413093925E-1,-5.756858587E-1,1.136011124E0,1.583666270E0
1.971834598E0,-9.138204455E-1,-6.777002811E-1,1.073702931E0,1.564347616E0
1.974280431E0,-8.961054087E-1,-7.552800775E-1,1.001010180E0,1.541257369E0
1.976725431E0,-8.808338046E-1,-8.065927029E-1,9.209868908E-1,1.508203180E0
1.979169702E0,-8.655621409E-1,-8.414120078E-1,8.305788636E-1,1.465275822E0
1.981614702E0,-8.386840820E-1,-8.579053283E-1,7.310079336E-1,1.404907520E0
1.984060535E0,-8.069191575E-1,-8.505749702E-1,6.241065860E-1,1.328196272E0
1.986505535E0,-7.684346437E-1,-8.096470237E-1,5.086531639E-1,1.226681762E0
1.988949754E0,-7.201763391E-1,-7.375649810E-1,3.883127868E-1,1.101563834E0
1.991394806E0,-6.651985049E-1,-6.318854094E-1,2.649181187E-1,9.549606438E-1
1.993840587E0,-6.022794843E-1,-4.981060624E-1,1.439669281E-1,7.947180022E-1
1.996285639E0,-5.259213448E-1,-3.411138058E-1,3.095694073E-2,6.276226745E-1
1.998729858E0,-4.477306902E-1,-1.633521765E-1,-7.166834176E-2,4.819575249E-1
2.001174858E0,-3.634313643E-1,2.784848772E-2,-1.620763093E-1,3.989067872E-1
2.003620692E0,-2.772994339E-1,2.269903868E-1,-2.402669936E-1,4.314485369E-1
2.006065692E0,-1.936109513E-1,4.291865826E-1,-3.019643426E-1,5.593467505E-1
2.008509962E0,-1.141985431E-1,6.222198606E-1,-3.502226472E-1,7.230869690E-1
2.010954962E0,-3.784045577E-2,7.975380421E-1,-3.868745267E-1,8.872264244E-1
2.013400796E0,3.363071755E-2,9.459781647E-1,-4.143634439E-1,1.033297042E0
2.015845796E0,9.899324179E-2,1.062042475E0,-4.302459359E-1,1.150150184E0
2.018290014E0,1.539710760E-1,1.142676592E0,-4.394088984E-1,1.233895079E0
2.020735067E0,1.997859329E-1,1.194600105E0,-4.455175400E-1,1.290530786E0
2.023180900E0,2.333834916E-1,1.219645619E0,-4.516261816E-1,1.321351391E0
2.025625900E0,2.553746104E-1,1.219645619E0,-4.577348530E-1,1.327506243E0
2.028070119E0,2.700353563E-1,1.193989277E0,-4.662869573E-1,1.309943897E0
2.030515119E0,2.785874605E-1,1.142065763E0,-4.821694195E-1,1.270595345E0
2.032960952E0,2.865287066E-1,1.065096855E0,-5.078257322E-1,1.214255733E0
2.035405952E0,2.895830274E-1,9.710236788E-1,-5.389798284E-1,1.147712756E0
2.037850223E0,2.871395648E-1,8.653440475E-1,-5.786859989E-1,1.079882834E0
2.040295223E0,2.767548561E-1,7.547774911E-1,-6.251117587E-1,1.018355057E0
2.042741056E0,2.565963268E-1,6.521522403E-1,-6.794787049E-1,9.761329468E-1
2.045186056E0,2.291074395E-1,5.562464595E-1,-7.405651808E-1,9.541158889E-1
2.047630275E0,1.985642016E-1,4.633950293E-1,-8.083711863E-1,9.526944264E-1
2.050075327E0,1.692426950E-1,3.644349277E-1,-8.773988485E-1,9.650309040E-1
2.052521108E0,1.515276134E-1,2.654748559E-1,-9.476483464E-1,9.957283290E-1
2.054966160E0,1.368668675E-1,1.714016944E-1,-1.017287016E0,1.040665149E0
2.057410379E0,1.313690841E-1,8.526977897E-2,-1.081427813E0,1.092709882E0
2.059855379E0,1.325908154E-1,5.857357290E-3,-1.138238192E0,1.145949743E0
2.062301212E0,1.435863823E-1,-7.111158967E-2,-1.187107444E0,1.197872276E0
2.064746264E0,1.588579863E-1,-1.425827742E-1,-1.227424502E0,1.245847750E0
2.067190483E0,1.722970158E-1,-1.920628101E-1,-1.261022091E0,1.287148437E0
2.069635483E0,1.796273887E-1,-2.171082646E-1,-1.282402277E0,1.312995658E0
2.072081317E0,1.857360452E-1,-2.207734585E-1,-1.297063112E0,1.328763153E0
2.074526317E0,1.942881495E-1,-2.042801082E-1,-1.308669448E0,1.338691141E0
2.076970535E0,2.083380371E-1,-1.749586016E-1,-1.315999866E0,1.343826959E0
2.079415587E0,2.260531187E-1,-1.334197968E-1,-1.317832470E0,1.343719939E0
2.081861369E0,2.492659688E-1,-8.149629831E-2,-1.318443298E0,1.344272257E0
2.084306421E0,2.743114233E-1,-2.712933533E-2,-1.315999866E0,1.344558814E0
2.086750639E0,2.999677360E-1,2.418330126E-2,-1.308058619E0,1.342230542E0
2.089195639E0,3.262349069E-1,6.755469739E-2,-1.294008732E0,1.336207862E0
2.091641473E0,3.561672866E-1,9.321101010E-2,-1.276293635E0,1.328333118E0
2.094086525E0,3.842670619E-1,1.011522561E-1,-1.250026464E0,1.311662729E0
2.096530744E0,4.068690538E-1,1.011522561E-1,-1.220094085E0,1.290117739E0
2.098975744E0,4.221406579E-1,9.565447271E-2,-1.182831407E0,1.259540650E0
2.101421577E0,4.331362247E-1,8.710236847E-2,-1.138849139E0,1.221544585E0
2.103866577E0,4.422992170E-1,7.427421212E-2,-1.093034267E0,1.181469071E0
2.106310796E0,4.496295750E-1,5.533739924E-2,-1.039888978E0,1.134283064E0
2.108755848E0,4.557382464E-1,3.945491463E-2,-9.873545170E-1,1.088174150E0
2.111201629E0,4.594034255E-1,3.090281226E-2,-9.348201752E-1,1.042062978E0
2.113646681E0,4.587925673E-1,3.212454170E-2,-8.804532290E-1,9.933380564E-1
2.116090900E0,4.532947838E-1,4.739616066E-2,-8.266971111E-1,9.440077704E-1
2.118535900E0,4.459643960E-1,6.938728690E-2,-7.759953141E-1,8.977012675E-1
2.120981733E0,4.355796874E-1,9.870879352E-2,-7.277370095E-1,8.538584455E-1
2.123426785E0,4.288601875E-1,1.280303001E-1,-6.825330257E-1,8.161887952E-1
2.125871004E0,4.233624041E-1,1.518540233E-1,-6.391616464E-1,7.815516488E-1
2.128316004E0,4.215297997E-1,1.683473736E-1,-6.006771326E-1,7.528885893E-1
2.130761837E0,4.196972251E-1,1.768994778E-1,-5.634143949E-1,7.244825508E-1
2.133206837E0,4.160320163E-1,1.775103360E-1,-5.279842615E-1,6.952409211E-1
2.135651056E0,4.105342329E-1,1.683473736E-1,-4.937758744E-1,6.638477300E-1
2.138096108E0,3.995386660E-1,1.512431651E-1,-4.614000320E-1,6.288049222E-1
2.140541942E0,3.873213828E-1,1.225325167E-1,-4.278024733E-1,5.899551062E-1
2.142986942E0,3.689954281E-1,8.404804766E-2,-3.990918398E-1,5.499963608E-1
2.145431160E0,3.494477570E-1,3.456799686E-2,-3.673268557E-1,5.081709360E-1
2.147876160E0,3.280675113E-1,-2.407501265E-2,-3.386162221E-1,4.720898687E-1
2.150321994E0,3.042437732E-1,-8.882667124E-2,-3.099055886E-1,4.432786087E-1
2.152767046E0,2.798092067E-1,-1.609087139E-1,-2.842492759E-1,4.300958698E-1
2.155211264E0,2.559854686E-1,-2.378776670E-1,-2.592038214E-1,4.350873080E-1
2.157656264E0,2.321617603E-1,-3.209552765E-1,-2.390452623E-1,4.626597129E-1
2.160102098E0,2.107814997E-1,-4.113632739E-1,-2.201084495E-1,5.119534288E-1
2.162547098E0,1.869577765E-1,-5.011603236E-1,-2.042259723E-1,5.725584057E-1
2.164991317E0,1.649666429E-1,-5.927900672E-1,-1.913978010E-1,6.443967530E-1
2.167436369E0,1.417537779E-1,-6.874740720E-1,-1.834565699E-1,7.255143322E-1
2.169882150E0,1.185409129E-1,-7.821581364E-1,-1.785696447E-1,8.109934749E-1
2.172327202E0,9.654978663E-2,-8.768421412E-1,-1.773479134E-1,8.997923561E-1
2.174771421E0,7.639124990E-2,-9.715262055E-1,-1.816239804E-1,9.913052312E-1
2.177216473E0,5.745444074E-2,-1.065599322E0,-1.901760846E-1,1.083960272E0
2.179662254E0,3.912850097E-2,-1.156007290E0,-2.036150992E-1,1.174454342E0
2.182107306E0,2.080255747E-2,-1.240306616E0,-2.237736434E-1,1.260503031E0
2.184551525E0,6.141805090E-3,-1.322162509E0,-2.463756353E-1,1.344935826E0
2.186996525E0,-6.686354056E-3,-1.402185798E0,-2.750862837E-1,1.428930433E0
2.189442358E0,-1.401673071E-2,-1.479765654E0,-3.044078052E-1,1.510816657E0
2.191887358E0,-2.195797116E-2,-1.548182487E0,-3.343401551E-1,1.584024781E0
2.194331577E0,-3.234267235E-2,-1.604992867E0,-3.648833930E-1,1.646264876E0
2.196776629E0,-4.150564224E-2,-1.641644835E0,-3.935940564E-1,1.688679000E0
2.199222462E0,-5.127947778E-2,-1.660581589E0,-4.210829437E-1,1.713905378E0
2.201667462E0,-5.494466797E-2,-1.666690230E0,-4.455175400E-1,1.726082593E0
2.204111681E0,-5.127947778E-2,-1.669133663E0,-4.681195319E-1,1.734293132E0
2.206556733E0,-3.967304900E-2,-1.667301059E0,-4.894998074E-1,1.738124516E0
2.209002514E0,-2.134710923E-2,-1.663635969E0,-5.078257322E-1,1.739548019E0
2.211447567E0,-1.799436286E-3,-1.658748984E0,-5.249299407E-1,1.739828404E0
2.213891785E0,2.141342312E-2,-1.653251171E0,-5.420341492E-1,1.739970973E0
2.216336785E0,4.340455309E-2,-1.654472947E0,-5.597492456E-1,1.747135915E0
2.218782619E0,5.928703398E-2,-1.660581589E0,-5.786859989E-1,1.759523700E0
2.221227619E0,7.150433213E-2,-1.670966268E0,-6.006771326E-1,1.777091487E0
2.223671837E0,7.394778728E-2,-1.682572722E0,-6.293877959E-1,1.797956684E0
2.226116889E0,6.906086951E-2,-1.694179177E0,-6.617636085E-1,1.820149324E0
2.228562671E0,6.050876528E-2,-1.716170311E0,-7.026915550E-1,1.855445302E0
2.231007723E0,5.501098186E-2,-1.755265594E0,-7.515607476E-1,1.910190323E0
2.233451942E0,5.134579539E-2,-1.804745674E0,-8.022625446E-1,1.975694442E0
2.235896994E0,5.256752297E-2,-1.864610434E0,-8.517425656E-1,2.050609863E0
2.238342775E0,5.501098186E-2,-1.916533947E0,-8.969465494E-1,2.116752629E0
2.240787827E0,5.745444074E-2,-1.936081529E0,-9.335984588E-1,2.150190406E0
2.243232046E0,6.417395175E-2,-1.915312171E0,-9.586439133E-1,2.142787241E0
2.245677046E0,7.578038424E-2,-1.851171374E0,-9.690285921E-1,2.090835846E0
2.248122879E0,9.716064483E-2,-1.746102691E0,-9.678068757E-1,1.998740840E0
2.250567879E0,1.264821589E-1,-1.598884225E0,-9.525352120E-1,1.865409293E0
2.253012150E0,1.643557698E-1,-1.420511723E0,-9.281006455E-1,1.704768952E0
2.255457150E0,2.077271640E-1,-1.216482878E0,-8.926705122E-1,1.523102692E0
2.257902983E0,2.578180730E-1,-9.959607720E-1,-8.529642820E-1,1.336396679E0
2.260347983E0,2.993568778E-1,-7.827689648E-1,-8.040950894E-1,1.161426151E0
2.262792202E0,3.616650701E-1,-5.689663291E-1,-7.497281432E-1,1.008274068E0
2.265237254E0,4.019821286E-1,-4.003677070E-1,-6.929177046E-1,8.955550669E-1
2.267683035E0,4.453535378E-1,-2.574253380E-1,-6.336638331E-1,8.161724277E-1
2.270128087E0,4.807837009E-1,-1.554109305E-1,-5.676904917E-1,7.599855385E-1
2.272572306E0,4.984987974E-1,-8.943753690E-2,-5.035496950E-1,7.141865438E-1
2.275017306E0,5.192681551E-1,-4.667700827E-2,-4.333002567E-1,6.779139123E-1
2.277463139E0,5.131595135E-1,-3.323798627E-2,-3.618290722E-1,6.287747828E-1
2.279908139E0,5.149921179E-1,-1.124685444E-2,-2.860818505E-1,5.892250830E-1
2.282352358E0,4.899466634E-1,1.257687248E-2,-2.091128826E-1,5.328546785E-1
2.284797410E0,4.728424549E-1,7.183074951E-2,-1.284787357E-1,4.952236154E-1
2.287243244E0,4.465752542E-1,1.475779712E-1,-4.967720062E-2,4.729445417E-1
2.289688244E0,4.306927919E-1,2.544792891E-1,2.973521128E-2,5.011388753E-1
2.292132462E0,4.251950085E-1,3.729870319E-1,1.091476232E-1,5.760410792E-1
2.294577514E0,4.251950085E-1,4.957708418E-1,1.855057180E-1,6.789638387E-1
2.297023296E0,4.551273584E-1,6.203872561E-1,2.630855143E-1,8.131637276E-1
2.299468348E0,4.710098505E-1,7.388950586E-1,3.418870866E-1,9.405865016E-1
2.301912567E0,5.046074390E-1,8.683983684E-1,4.194668829E-1,1.088437807E0
2.304357567E0,5.101051927E-1,9.875169992E-1,4.939923882E-1,1.216316411E0
2.306803400E0,5.217116475E-1,1.120685458E0,5.697396398E-1,1.361147382E0
2.309248452E0,5.070508718E-1,1.242247581E0,6.399890780E-1,1.486561691E0
2.311692671E0,4.881140590E-1,1.358311892E0,7.022972703E-1,1.605144226E0
2.314137671E0,4.661229253E-1,1.443222046E0,7.615511417E-1,1.697091806E0
2.316583504E0,4.337471128E-1,1.500032425E0,8.128638268E-1,1.760392409E0
2.319028504E0,4.148102999E-1,1.528132200E0,8.556243181E-1,1.799819041E0
2.321472723E0,3.714388907E-1,1.517136693E0,8.898327351E-1,1.797629798E0
2.323917775E0,3.482260406E-1,1.487815142E0,9.203760028E-1,1.783801350E0
2.326363556E0,2.975242734E-1,1.430393934E0,9.429779649E-1,1.738894747E0
2.328808608E0,2.596506476E-1,1.370529175E0,9.619147778E-1,1.694416926E0
2.331252827E0,2.077271640E-1,1.288673282E0,9.784081578E-1,1.631291490E0
2.333697827E0,1.613014489E-1,1.203763127E0,9.918471575E-1,1.568063968E0
2.336143660E0,1.197626442E-1,1.103581309E0,1.004675388E0,1.497199864E0
2.338588660E0,6.234135479E-2,1.016838431E0,1.016892552E0,1.439415612E0
2.341032931E0,5.530940369E-3,9.581954479E-1,1.033996701E0,1.409722769E0
2.343477931E0,-8.121185005E-2,9.184892774E-1,1.046213984E0,1.394554272E0
2.345923764E0,-1.380222589E-1,8.903895020E-1,1.059653044E0,1.390937879E0
2.348368764E0,-2.046065181E-1,8.439637423E-1,1.070037723E0,1.378085394E0
2.350812983E0,-2.406475395E-1,8.128096461E-1,1.076146364E0,1.369913047E0
2.353258035E0,-2.821863592E-1,7.755469084E-1,1.082255006E0,1.361020957E0
2.355703817E0,-3.096752763E-1,7.511123419E-1,1.085309386E0,1.355715675E0
2.358148869E0,-3.273903430E-1,7.315646410E-1,1.089585423E0,1.352615117E0
2.360593087E0,-3.438836932E-1,7.297320366E-1,1.092639685E0,1.358170210E0
2.363038087E0,-3.622096181E-1,7.431710958E-1,1.098748326E0,1.375044352E0
2.365483921E0,-3.768703938E-1,7.639405131E-1,1.104856968E0,1.395114806E0
2.367928921E0,-3.915311396E-1,7.908185124E-1,1.111576557E0,1.419257903E0
2.370373192E0,-4.068027437E-1,8.286921382E-1,1.117685199E0,1.449634208E0
2.372818192E0,-4.232960939E-1,8.702309728E-1,1.126237273E0,1.484887849E0
2.375264025E0,-4.391785860E-1,9.172675610E-1,1.136011124E0,1.524722559E0
2.377709025E0,-4.568936527E-1,9.728562832E-1,1.146395802E0,1.571440261E0
2.380153244E0,-4.733870029E-1,1.038218737E0,1.159834862E0,1.627024986E0
2.382598296E0,-4.917129576E-1,1.115187764E0,1.168997765E0,1.688780967E0
2.385044077E0,-5.069845915E-1,1.193378448E0,1.181215167E0,1.753982545E0
2.387489129E0,-5.179801583E-1,1.275234222E0,1.190378070E0,1.819759796E0
2.389933348E0,-5.234779119E-1,1.355868459E0,1.195875883E0,1.882160336E0
2.392378348E0,-5.234779119E-1,1.427950501E0,1.198319316E0,1.936244029E0
2.394824181E0,-5.210344791E-1,1.494534731E0,1.198319316E0,1.985215397E0
2.397269233E0,-5.161475539E-1,1.555010319E0,1.195875883E0,2.028443866E0
2.399713452E0,-5.137040615E-1,1.612431645E0,1.191599846E0,2.069719272E0
2.402158452E0,-5.149258375E-1,1.672907233E0,1.186712861E0,2.114723302E0
2.404604285E0,-5.216453075E-1,1.732771993E0,1.183047652E0,2.161993144E0
2.407049285E0,-5.289757252E-1,1.788971543E0,1.179382563E0,2.207074473E0
2.409493504E0,-5.356951952E-1,1.834786296E0,1.176328182E0,2.244361398E0
2.411938556E0,-5.448581576E-1,1.865329623E0,1.174495578E0,2.270630943E0
2.414384389E0,-5.491342545E-1,1.882433772E0,1.171441317E0,2.284158509E0
2.416829389E0,-5.485233665E-1,1.873881698E0,1.170830369E0,2.276654180E0
2.419273608E0,-5.393604040E-1,1.833564639E0,1.169608712E0,2.240726103E0
2.421718660E0,-5.234779119E-1,1.754763126E0,1.166554332E0,2.171191323E0
2.424164442E0,-5.008759499E-1,1.640531421E0,1.165943503E0,2.074040576E0
2.426609494E0,-4.801065326E-1,1.491480350E0,1.165943503E0,1.953059183E0
2.429053712E0,-4.739978611E-1,1.326546907E0,1.165332675E0,1.828223431E0
2.431498712E0,-4.892694950E-1,1.154283047E0,1.162278295E0,1.709574457E0
2.433944546E0,-5.222561955E-1,9.704127312E-1,1.155558825E0,1.596799486E0
2.436389546E0,-5.644058585E-1,7.633296251E-1,1.142730594E0,1.485617481E0
2.438833764E0,-6.065555215E-1,5.257032514E-1,1.124404669E0,1.381506196E0
2.441278817E0,-6.493160725E-1,2.660857141E-1,1.098137498E0,1.303195662E0
2.443724650E0,-6.890222430E-1,-1.473019365E-3,1.060263872E0,1.264481435E0
2.446169650E0,-7.323936224E-1,-2.586470842E-1,1.015670776E0,1.278626552E0
2.448613869E0,-7.733215690E-1,-4.962734580E-1,9.582496285E-1,1.327612875E0
2.451058921E0,-8.087517619E-1,-7.088543773E-1,8.928871155E-1,1.397784440E0
2.453504702E0,-8.350189328E-1,-8.970006704E-1,8.153072596E-1,1.471935035E0
2.455949754E0,-8.478471041E-1,-1.058879852E0,7.285645008E-1,1.539765399E0
2.458393973E0,-8.496796489E-1,-1.184718013E0,6.314370036E-1,1.588780968E0
2.460838973E0,-8.454036117E-1,-1.271460772E0,5.220922232E-1,1.613660451E0
2.463284806E0,-8.325754404E-1,-1.322773457E0,4.072495997E-1,1.615166777E0
2.465729806E0,-8.081408739E-1,-1.346597075E0,2.838549316E-1,1.595928876E0
2.468174077E0,-7.763758898E-1,-1.341710210E0,1.574059427E-1,1.558115028E0
2.470619077E0,-7.403348684E-1,-1.305669188E0,3.156780452E-2,1.501287539E0
2.473064910E0,-7.042938471E-1,-1.236641526E0,-9.060513973E-2,1.426015911E0
2.475509910E0,-6.651985049E-1,-1.137070537E0,-2.030042410E-1,1.332902539E0
2.477954129E0,-6.242706180E-1,-1.014897585E0,-3.050186634E-1,1.229946055E0
2.480399181E0,-5.815100670E-1,-8.750095367E-1,-3.984809518E-1,1.123647060E0
2.482844962E0,-5.308082700E-1,-7.216824889E-1,-4.778933823E-1,1.015364525E0
2.485290014E0,-4.752196074E-1,-5.573598742E-1,-5.456993580E-1,9.133846364E-1
2.487734233E0,-4.135222733E-1,-3.924264610E-1,-6.006771326E-1,8.281377998E-1
2.490179233E0,-3.493814766E-1,-2.238277793E-1,-6.452702880E-1,7.671636302E-1
2.492625067E0,-2.852406800E-1,-6.255949289E-2,-6.819221377E-1,7.418178601E-1
2.495070067E0,-2.259867787E-1,9.565447271E-2,-7.130762935E-1,7.541204165E-1
2.497514337E0,-1.746741384E-1,2.447054535E-1,-7.387325764E-1,7.975698295E-1
2.499959337E0,-1.343570799E-1,3.821500242E-1,-7.595019937E-1,8.607750834E-1
2.502405171E0,-1.038138419E-1,5.061555505E-1,-7.814931273E-1,9.368576536E-1
2.504850171E0,-7.876839489E-2,6.032830477E-1,-8.040950894E-1,1.008327233E0
2.507294389E0,-5.189034343E-2,6.637586951E-1,-8.285297155E-1,1.062887436E0
2.509739442E0,-2.073624358E-2,6.814737320E-1,-8.547968864E-1,1.093395700E0
2.512185223E0,8.585263975E-3,6.698673368E-1,-8.822857738E-1,1.107801490E0
2.514630275E0,2.324601635E-2,6.600934863E-1,-9.122181535E-1,1.126235210E0
2.517074494E0,2.019169182E-2,6.576500535E-1,-9.409288168E-1,1.148154317E0
2.519519546E0,9.196128696E-3,6.503196359E-1,-9.726938009E-1,1.170099751E0
2.521965327E0,6.440225989E-4,6.344371438E-1,-1.007513165E0,1.190627432E0
2.524410379E0,-2.410301007E-3,6.130568981E-1,-1.049052000E0,1.215053360E0
2.526854598E0,-5.464624614E-3,5.867897272E-1,-1.095477700E0,1.242748340E0
2.529299598E0,-2.410301007E-3,5.562464595E-1,-1.146179438E0,1.274026388E0
2.531745431E0,4.920075648E-3,5.202054381E-1,-1.203600764E0,1.311218023E0
2.534190431E0,9.196128696E-3,4.847752750E-1,-1.265908957E0,1.355587372E0
2.536634650E0,6.752669811E-3,4.505668581E-1,-1.330049753E0,1.404310663E0
2.539079702E0,6.440225989E-4,4.053628743E-1,-1.392357945E0,1.450165550E0
2.541525535E0,3.698346205E-3,3.235070109E-1,-1.446114063E0,1.481862459E0
2.543970535E0,3.546331078E-2,1.976688802E-1,-1.485820293E0,1.499330710E0
2.546414754E0,6.967173517E-2,8.099372685E-2,-1.504757047E0,1.508544963E0
2.548859806E0,9.288459271E-2,1.318773441E-2,-1.506589651E0,1.509507814E0
2.551305587E0,1.075453460E-1,3.413898405E-3,-1.493761539E0,1.497631862E0
2.553750639E0,1.191517785E-1,4.250924289E-2,-1.471770406E0,1.477197451E0
2.556194858E0,1.350342631E-1,1.194781959E-1,-1.440005422E0,1.451249429E0
2.558639858E0,1.570253968E-1,2.208817452E-1,-1.403353572E0,1.429281977E0
2.561085692E0,1.784056574E-1,3.381677568E-1,-1.363036394E0,1.415646221E0
2.563530692E0,1.961207390E-1,4.646167457E-1,-1.320886731E0,1.413886071E0
2.565974910E0,2.175009996E-1,5.709072351E-1,-1.281180620E0,1.419389142E0
2.568419962E0,2.437681854E-1,6.356589198E-1,-1.245750427E0,1.419640559E0
2.570865796E0,2.651484311E-1,6.527631283E-1,-1.213374615E0,1.403097056E0
2.573310796E0,2.804200649E-1,6.246633530E-1,-1.184053063E0,1.367779724E0
2.575755014E0,2.816417813E-1,5.507487059E-1,-1.161451101E0,1.315908390E0
2.578200067E0,2.675918937E-1,4.340735078E-1,-1.145568609E0,1.253934875E0
2.580645848E0,2.382704020E-1,2.801356018E-1,-1.133351326E0,1.191525899E0
2.583090900E0,2.003967911E-1,9.321101010E-2,-1.128464341E0,1.149903881E0
2.585535119E0,1.570253968E-1,-1.144829839E-1,-1.129686117E0,1.146278348E0
2.587980119E0,1.087670773E-1,-3.270639181E-1,-1.132129550E0,1.183435001E0
2.590425952E0,6.234135479E-2,-5.292600989E-1,-1.137627363E0,1.256263792E0
2.592871004E0,1.713737100E-2,-7.033565640E-1,-1.141292572E0,1.340728489E0
2.595315223E0,-2.195797116E-2,-8.487423658E-1,-1.146179438E0,1.426384611E0
2.597760223E0,-4.822515696E-2,-9.739696383E-1,-1.155342460E0,1.511872588E0
2.600206056E0,-6.410763413E-2,-1.076594949E0,-1.163894534E0,1.586763044E0
2.602651056E0,-6.899455935E-2,-1.162726879E0,-1.174279213E0,1.653972707E0
2.605095275E0,-6.838369370E-2,-1.228089333E0,-1.185885668E0,1.708567984E0
2.607540327E0,-6.899455935E-2,-1.268406391E0,-1.197492123E0,1.745738356E0
2.609986108E0,-6.594023108E-2,-1.295895338E0,-1.206655025E0,1.771922456E0
2.612431160E0,-5.127947778E-2,-1.325827718E0,-1.209709406E0,1.795507051E0
2.614875379E0,-2.562316135E-2,-1.356370926E0,-1.207265973E0,1.816009296E0
2.617320379E0,2.476616763E-3,-1.361868739E0,-1.191994309E0,1.809846134E0
2.619766212E0,2.507860959E-2,-1.325827718E0,-1.168781519E0,1.767625049E0
2.622211264E0,4.584801197E-2,-1.250080466E0,-1.139459968E0,1.692091082E0
2.624655483E0,6.967173517E-2,-1.139513969E0,-1.101586342E0,1.586454760E0
2.627100483E0,9.716064483E-2,-9.971824884E-1,-1.060047507E0,1.458599953E0
2.629546317E0,1.338125318E-1,-8.304164410E-1,-1.013621807E0,1.317166059E0
2.631991317E0,1.814599931E-1,-6.587634683E-1,-9.671959877E-1,1.184214978E0
2.634435587E0,2.388812751E-1,-4.932191372E-1,-9.189376831E-1,1.069941983E0
2.636880587E0,3.066872358E-1,-3.472224772E-1,-8.682358861E-1,9.841006367E-1
2.639326421E0,3.726606369E-1,-2.238277793E-1,-8.144798279E-1,9.232292322E-1
2.641771421E0,4.343579710E-1,-1.242568195E-1,-7.576693892E-1,8.821391656E-1
2.644215639E0,4.832271338E-1,-5.217479169E-2,-6.965829134E-1,8.493870890E-1
2.646660692E0,5.229333639E-1,-1.002512313E-2,-6.336638331E-1,8.216383996E-1
2.649106473E0,5.510331392E-1,-5.749071483E-3,-5.695230365E-1,7.924815843E-1
2.651551525E0,5.663047433E-1,-2.774020098E-2,-5.084365606E-1,7.615630750E-1
2.653995744E0,5.650830269E-1,-6.988986582E-2,-4.534587860E-1,7.278930493E-1
2.656440744E0,5.498114228E-1,-1.273111552E-1,-4.052004814E-1,6.947576276E-1
2.658886577E0,5.259876847E-1,-2.024475187E-1,-3.661051393E-1,6.720721801E-1
2.661331577E0,4.972770214E-1,-2.959098220E-1,-3.380053639E-1,6.701452714E-1
2.663775848E0,4.649012089E-1,-4.058654904E-1,-3.141816258E-1,6.925099453E-1
2.666220848E0,4.319145083E-1,-5.255949497E-1,-2.952448130E-1,7.415994156E-1
2.668666681E0,4.062581956E-1,-6.605960131E-1,-2.787514925E-1,8.240966015E-1
2.671111681E0,3.836562037E-1,-7.955971360E-1,-2.622581422E-1,9.213827753E-1
2.673555900E0,3.604433239E-1,-9.153266549E-1,-2.439321727E-1,1.013531045E0
2.676000952E0,3.396739364E-1,-1.005734682E0,-2.274388224E-1,1.085637624E0
2.678446733E0,3.176828027E-1,-1.062545061E0,-2.109454721E-1,1.128903168E0
2.680891785E0,2.987459898E-1,-1.086368799E0,-1.981173158E-1,1.143982869E0
2.683336004E0,2.871395648E-1,-1.088812232E0,-1.877326220E-1,1.141579933E0
2.685781004E0,2.865287066E-1,-1.077816606E0,-1.822348386E-1,1.130042863E0
2.688226837E0,2.993568778E-1,-1.060712457E0,-1.785696447E-1,1.116518058E0
2.690671837E0,3.213479817E-1,-1.045440793E0,-1.767370552E-1,1.107902055E0
2.693116108E0,3.518912196E-1,-1.039332151E0,-1.755153239E-1,1.111235520E0
2.695561108E0,3.860996664E-1,-1.044829965E0,-1.724610031E-1,1.127158110E0
2.698006942E0,4.141994417E-1,-1.053992867E0,-1.669632196E-1,1.144700336E0
2.700451942E0,4.251950085E-1,-1.057047248E0,-1.639088988E-1,1.151088966E0
2.702896160E0,4.184754789E-1,-1.052160382E0,-1.632980257E-1,1.144040839E0
2.705341212E0,3.915974498E-1,-1.042997360E0,-1.681849509E-1,1.126711247E0
2.707786994E0,3.500586450E-1,-1.040553927E0,-1.840674281E-1,1.113182083E0
2.710232046E0,2.987459898E-1,-1.046662569E0,-2.085020244E-1,1.108253037E0
2.712676264E0,2.492659688E-1,-1.076594949E0,-2.439321727E-1,1.131677123E0
2.715121264E0,2.083380371E-1,-1.134627104E0,-2.885253131E-1,1.189130043E0
2.717567098E0,1.753513366E-1,-1.220148087E0,-3.361727595E-1,1.277701674E0
2.720012150E0,1.527493447E-1,-1.325216889E0,-3.868745267E-1,1.388957906E0
2.722456369E0,1.380885988E-1,-1.434561610E0,-4.357437193E-1,1.505625473E0
2.724901369E0,1.185409129E-1,-1.521304488E0,-4.772825241E-1,1.598817657E0
2.727347202E0,1.002149731E-1,-1.578114867E0,-5.108800530E-1,1.661772549E0
2.729792202E0,8.188903332E-2,-1.593386412E0,-5.340929031E-1,1.682510416E0
2.732236421E0,6.111963093E-2,-1.562843204E0,-5.518079996E-1,1.658525416E0
2.734681473E0,4.218282551E-2,-1.484041691E0,-5.591383576E-1,1.586440933E0
2.737127306E0,3.363071755E-2,-1.361257911E0,-5.585274696E-1,1.471770043E0
2.739572306E0,3.363071755E-2,-1.199989557E0,-5.487536788E-1,1.319938090E0
2.742016525E0,4.401541874E-2,-1.003902078E0,-5.328711867E-1,1.137413047E0
2.744461577E0,6.967173517E-2,-7.815472484E-1,-5.078257322E-1,9.346428336E-1
2.746907358E0,1.063236222E-1,-5.353688002E-1,-4.742282033E-1,7.230607538E-1
2.749352410E0,1.515276134E-1,-2.702535093E-1,-4.333002567E-1,5.326787863E-1
2.751796629E0,2.028402537E-1,5.857357290E-3,-3.850419521E-1,4.352422108E-1
2.754241629E0,2.590397894E-1,2.819682062E-1,-3.270097971E-1,5.035306239E-1
2.756687462E0,3.182936609E-1,5.562464595E-1,-2.604255378E-1,6.917676192E-1
2.759132462E0,3.769366741E-1,8.311356306E-1,-1.834565699E-1,9.308727119E-1
2.761576733E0,4.343579710E-1,1.092585683E0,-1.009898484E-1,1.180088671E0
2.764021733E0,4.887249172E-1,1.340596795E0,-1.241445355E-2,1.426956878E0
2.766467567E0,5.363723636E-1,1.578834057E0,8.104784787E-2,1.669425364E0
2.768912567E0,5.766894221E-1,1.803632259E0,1.763427556E-1,1.901777270E0
2.771356785E0,6.060109735E-1,2.025986910E0,2.734702229E-1,2.132289432E0
2.773801837E0,6.225042939E-1,2.242843866E0,3.718194366E-1,2.357140195E0
2.776247619E0,6.267803311E-1,2.451148748E0,4.701686800E-1,2.573332928E0
2.778692671E0,6.212825775E-1,2.640516996E0,5.617983937E-1,2.770187626E0
2.781136889E0,6.139522195E-1,2.792622328E0,6.497629285E-1,2.932212246E0
2.783581942E0,6.115087271E-1,2.900745392E0,7.346731424E-1,3.054179330E0
2.786027723E0,6.060109735E-1,2.975270748E0,8.146964312E-1,3.143758197E0
2.788472723E0,5.895175934E-1,3.029637814E0,8.910545111E-1,3.212509053E0
2.790916994E0,5.608069897E-1,3.065068007E0,9.637473822E-1,3.261587862E0
2.793361994E0,5.253767967E-1,3.078506947E0,1.028498888E0,3.288013954E0
2.795807827E0,4.838380218E-1,3.074841738E0,1.093861461E0,3.299285353E0
2.798252827E0,4.276384413E-1,3.065068007E0,1.152504444E0,3.302390500E0
2.800697046E0,3.622759283E-1,3.043076754E0,1.202595353E0,3.292080734E0
2.803142098E0,2.926373482E-1,3.010700941E0,1.246577621E0,3.271683441E0
2.805587931E0,2.211661935E-1,2.964886189E0,1.285673022E0,3.239200475E0
2.808032931E0,1.466407031E-1,2.914795160E0,1.316827059E0,3.201806962E0
2.810477150E0,6.967173517E-2,2.870812893E0,1.343094230E0,3.170224428E0
2.812922150E0,-8.518948220E-3,2.834161043E0,1.365085363E0,3.145790750E0
2.815367983E0,-7.754666358E-2,2.791400433E0,1.381578803E0,3.115556106E0
2.817813035E0,-1.368005276E-1,2.738866091E0,1.391963482E0,3.075331557E0
2.820257254E0,-1.905566305E-1,2.692440510E0,1.397461176E0,3.039481118E0
2.822702254E0,-2.485887855E-1,2.659453630E0,1.400515556E0,3.015946588E0
2.825148087E0,-3.053992093E-1,2.636240959E0,1.399293780E0,3.000176354E0
2.827593087E0,-3.603770435E-1,2.616693258E0,1.397461176E0,2.988285957E0
2.830037306E0,-4.129114151E-1,2.594091177E0,1.394406915E0,2.973915855E0
2.832482358E0,-4.636131823E-1,2.570878267E0,1.390741706E0,2.959478795E0
2.834928192E0,-5.155366659E-1,2.547054529E0,1.387687445E0,2.946004289E0
2.837373192E0,-5.631841421E-1,2.511624575E0,1.385243893E0,2.923069453E0
2.839817410E0,-6.035012007E-1,2.452981472E0,1.383411288E0,2.880131697E0
2.842262462E0,-6.450399756E-1,2.379677773E0,1.385243893E0,2.828045882E0
2.844708244E0,-6.926874518E-1,2.309428215E0,1.388909101E0,2.782506618E0
2.847153296E0,-7.580499649E-1,2.250785112E0,1.391963482E0,2.752859551E0
2.849597514E0,-8.307428956E-1,2.192753077E0,1.394406915E0,2.728125814E0
2.852042514E0,-9.077118039E-1,2.123725414E0,1.396850348E0,2.699137130E0
2.854488348E0,-9.828481674E-1,2.046145439E0,1.398072124E0,2.665953364E0
2.856933348E0,-1.059206247E0,1.958791852E0,1.398682952E0,2.629657277E0
2.859377619E0,-1.134342670E0,1.864718676E0,1.396239519E0,2.591021773E0
2.861822619E0,-1.200316072E0,1.762704253E0,1.391963482E0,2.546654136E0
2.864268452E0,-1.258348227E0,1.652137756E0,1.387076497E0,2.497394769E0
2.866713452E0,-1.304773927E0,1.535462618E0,1.379746199E0,2.442085179E0
2.869157671E0,-1.335317135E0,1.399239779E0,1.372415781E0,2.371596273E0
2.871602723E0,-1.339593172E0,1.219034672E0,1.364474535E0,2.267674173E0
2.874048504E0,-1.312104225E0,9.783539772E-1,1.357144117E0,2.126178299E0
2.876493556E0,-1.260791659E0,6.753650904E-1,1.352868080E0,1.968747230E0
2.878937775E0,-1.193596482E0,3.143440187E-1,1.354089856E0,1.832223803E0
2.881382775E0,-1.142894745E0,-6.194862723E-2,1.360198498E0,1.777691195E0
2.883828608E0,-1.142894745E0,-3.936481774E-1,1.370583177E0,1.827475179E0
2.886273660E0,-1.196650863E0,-6.783111095E-1,1.385854840E0,1.952606690E0
2.888717879E0,-1.288891435E0,-9.379286170E-1,1.401737332E0,2.122691398E0
2.891162879E0,-1.393349290E0,-1.200600505E0,1.410900235E0,2.318081813E0
2.893608712E0,-1.495974541E0,-1.479154825E0,1.413343668E0,2.534438626E0
2.896053712E0,-1.584549904E0,-1.772980690E0,1.404791594E0,2.761828805E0
2.898497983E0,-1.652966738E0,-2.074136972E0,1.380967855E0,2.990219964E0
2.900942983E0,-1.692672968E0,-2.372849941E0,1.343094230E0,3.209277291E0
2.903388817E0,-1.703668594E0,-2.645906448E0,1.294225097E0,3.402693964E0
2.905833817E0,-1.696338177E0,-2.871315479E0,1.233138561E0,3.555649941E0
2.908278035E0,-1.667016625E0,-3.037470579E0,1.162889123E0,3.654789058E0
2.910723087E0,-1.615704060E0,-3.152313232E0,1.084087610E0,3.704433057E0
2.913168869E0,-1.544843674E0,-3.221340895E0,1.000399232E0,3.710037434E0
2.915613921E0,-1.451992273E0,-3.264101505E0,9.130456448E-1,3.687315087E0
2.918058139E0,-1.346923590E0,-3.279373169E0,8.232485056E-1,3.639537009E0
2.920503139E0,-1.247963428E0,-3.250051498E0,7.371165752E-1,3.558593585E0
2.922948973E0,-1.169772744E0,-3.165752172E0,6.546498537E-1,3.437865838E0
2.925393973E0,-1.120903611E0,-3.020977259E0,5.789026022E-1,3.273813789E0
2.927838244E0,-1.092803836E0,-2.833441734E0,5.086531639E-1,3.079178515E0
2.930283244E0,-1.062871456E0,-2.633689165E0,4.414580166E-1,2.874178062E0
2.932729077E0,-1.023165226E0,-2.430271149E0,3.718194366E-1,2.662955995E0
2.935174077E0,-9.675765634E-1,-2.228075027E0,3.021808565E-1,2.447822707E0
2.937618296E0,-8.961054087E-1,-2.019770145E0,2.288771123E-1,2.221454721E0
2.940063348E0,-8.166930079E-1,-1.799858689E0,1.500755697E-1,1.982170893E0
2.942509129E0,-7.275067568E-1,-1.566508412E0,6.883055717E-2,1.728569447E0
2.944954181E0,-6.316009760E-1,-1.321551681E0,-1.485791244E-2,1.464800121E0
2.947398400E0,-5.326408744E-1,-1.064377666E0,-9.549206495E-2,1.194037206E0
2.949843452E0,-4.361242652E-1,-7.955971360E-1,-1.724610031E-1,9.235377497E-1
2.952289233E0,-3.432728350E-1,-5.231514573E-1,-2.457647771E-1,6.722529377E-1
2.954734285E0,-2.577517629E-1,-2.543710172E-1,-3.117381632E-1,4.778297480E-1
2.957178504E0,-1.783393323E-1,4.635629710E-3,-3.728246391E-1,4.133093491E-1
2.959623504E0,-1.050355732E-1,2.410402745E-1,-4.284133315E-1,5.026637725E-1
2.962069337E0,-3.661872447E-2,4.499559999E-1,-4.821694195E-1,6.605215227E-1
2.964514337E0,2.691120654E-2,6.222198606E-1,-5.322602987E-1,8.192574647E-1
2.966958556E0,8.555421978E-2,7.566100955E-1,-5.786859989E-1,9.563764146E-1
2.969403608E0,1.405320466E-1,8.476289511E-1,-6.220574379E-1,1.060744809E0
2.971849442E0,1.912338287E-1,8.952764273E-1,-6.654288173E-1,1.131762241E0
2.974294442E0,2.376595438E-1,9.068828225E-1,-7.014698386E-1,1.170887888E0
2.976738660E0,2.767548561E-1,8.928329349E-1,-7.344565392E-1,1.188768400E0
2.979183712E0,3.085198402E-1,8.641223311E-1,-7.619454265E-1,1.192666227E0
2.981629494E0,3.299000859E-1,8.231943846E-1,-7.863800526E-1,1.185274925E0
2.984074546E0,3.451717198E-1,7.822664380E-1,-8.114255071E-1,1.178768701E0
2.986518764E0,3.512803614E-1,7.395058870E-1,-8.346383572E-1,1.169139870E0
2.988963764E0,3.537238240E-1,6.979671121E-1,-8.596838117E-1,1.162469307E0
2.991409598E0,3.537238240E-1,6.600934863E-1,-8.865618706E-1,1.160532595E0
2.993854598E0,3.512803614E-1,6.228307486E-1,-9.164941907E-1,1.162444681E0
2.996298869E0,3.500586450E-1,5.806810856E-1,-9.482591748E-1,1.165730261E0
2.998743869E0,3.482260406E-1,5.336444974E-1,-9.824675918E-1,1.171016820E0
3.001189702E0,3.470043242E-1,4.774449170E-1,-1.019119620E0,1.177697096E0
3.003634702E0,3.427282572E-1,4.102497995E-1,-1.055160642E0,1.182848907E0
3.006078921E0,3.366196156E-1,3.351134360E-1,-1.094866872E0,1.193460199E0
3.008523973E0,3.231805861E-1,2.508141100E-1,-1.132740498E0,1.204348141E0
3.010969754E0,3.036329150E-1,1.573518068E-1,-1.173057556E0,1.221890571E0
3.013414806E0,2.791983187E-1,5.045048147E-2,-1.210931182E0,1.243724760E0
3.015859025E0,2.480442226E-1,-7.477678359E-2,-1.247583032E0,1.274198150E0
3.018304025E0,2.150575519E-1,-2.177191377E-1,-1.286678314E0,1.322570398E0
3.020749858E0,1.753513366E-1,-3.753222525E-1,-1.326384544E0,1.389572180E0
3.023194910E0,1.301473528E-1,-5.439208746E-1,-1.364258170E0,1.474445186E0
3.025639129E0,7.761297375E-2,-7.167955637E-1,-1.402131796E0,1.576639853E0
3.028084129E0,2.202428877E-2,-8.927246332E-1,-1.440616250E0,1.694938795E0
3.030529962E0,-3.722959012E-2,-1.067431927E0,-1.476046443E0,1.821952267E0
3.032974962E0,-1.123659536E-1,-1.214650393E0,-1.509033084E0,1.940407826E0
3.035419233E0,-1.978870034E-1,-1.312388659E0,-1.539576411E0,2.032687576E0
3.037864233E0,-2.632495463E-1,-1.391801119E0,-1.562789202E0,2.109199082E0
3.040310067E0,-2.834080756E-1,-1.479765654E0,-1.573173881E0,2.178279731E0
3.042755067E0,-2.565300465E-1,-1.584223509E0,-1.566454411E0,2.242621504E0
3.045199285E0,-2.174346745E-1,-1.642866492E0,-1.545685053E0,2.266148811E0
3.047644337E0,-1.844479740E-1,-1.632481813E0,-1.511476517E0,2.232393152E0
3.050090119E0,-1.465743631E-1,-1.573227882E0,-1.461996555E0,2.152664382E0
3.052535171E0,-1.038138419E-1,-1.469991803E0,-1.406407833E0,2.037065588E0
3.054979389E0,-6.166417897E-2,-1.331325531E0,-1.343488812E0,1.892403850E0
3.057424389E0,-2.073624358E-2,-1.171278954E0,-1.276293635E0,1.732411563E0
3.059870223E0,1.835909858E-2,-1.005123734E0,-1.209098577E0,1.572428106E0
3.062315223E0,4.890233651E-2,-8.408011198E-1,-1.148622990E0,1.424314830E0
3.064759494E0,6.783913821E-2,-6.862523556E-1,-1.093034267E0,1.292388623E0
3.067204494E0,8.249989897E-2,-5.549164414E-1,-1.047219396E0,1.188026495E0
3.069650327E0,1.057127565E-1,-4.712280035E-1,-1.007513165E0,1.117279641E0
3.072095327E0,1.454189718E-1,-4.370195866E-1,-9.720829129E-1,1.075675595E0
3.074539546E0,1.942881495E-1,-4.400739074E-1,-9.397071004E-1,1.055680995E0
3.076984598E0,2.449899167E-1,-4.651193619E-1,-9.061095119E-1,1.047564092E0
3.079430379E0,2.920264900E-1,-5.005494952E-1,-8.767880201E-1,1.050993102E0
3.081875431E0,3.237914443E-1,-5.359796286E-1,-8.505208492E-1,1.056172702E0
3.084319650E0,3.347870111E-1,-5.573598742E-1,-8.346383572E-1,1.057995066E0
3.086764702E0,3.256240487E-1,-5.671337247E-1,-8.303623199E-1,1.056964174E0
3.089210483E0,3.091306984E-1,-5.830162168E-1,-8.401361108E-1,1.068315675E0
3.091655535E0,2.950808108E-1,-6.202789545E-1,-8.572403193E-1,1.098489705E0
3.094099754E0,2.853069901E-1,-6.838089228E-1,-8.804532290E-1,1.150735682E0
3.096544754E0,2.810309231E-1,-7.656647563E-1,-9.030551910E-1,1.216852323E0
3.098990587E0,2.773657441E-1,-8.450771570E-1,-9.201593995E-1,1.279757976E0
3.101435587E0,2.798092067E-1,-9.171591997E-1,-9.293223619E-1,1.335333008E0
3.103879858E0,2.987459898E-1,-9.764130712E-1,-9.281006455E-1,1.379855956E0
3.106324858E0,3.225697279E-1,-9.959607720E-1,-9.134398699E-1,1.389374494E0
3.108770692E0,3.439499736E-1,-9.428155422E-1,-8.883944154E-1,1.340316145E0
3.111215692E0,3.622759283E-1,-8.194208741E-1,-8.609055281E-1,1.242518710E0
3.113659910E0,3.885430992E-1,-6.459352970E-1,-8.266971111E-1,1.118761039E0
3.116104962E0,4.331362247E-1,-4.431282282E-1,-7.888234854E-1,1.003101245E0
3.118550744E0,4.966661930E-1,-2.207734585E-1,-7.503390312E-1,9.265132967E-1
3.120995796E0,5.711916685E-1,8.300816640E-3,-7.142980099E-1,9.146313315E-1
3.123440014E0,6.573235989E-1,2.392076701E-1,-6.764243841E-1,9.730593869E-1
3.125885014E0,7.483424544E-1,4.603407085E-1,-6.379399300E-1,1.085770395E0
3.128330848E0,8.375287056E-1,6.625369191E-1,-5.970119834E-1,1.223451188E0
3.130775900E0,9.187737107E-1,8.402985930E-1,-5.511971116E-1,1.361640596E0
3.133220119E0,9.841362238E-1,9.881278276E-1,-5.041605234E-1,1.482935786E0
3.135665119E0,1.028729320E0,1.105413914E0,-4.540696442E-1,1.576833274E0
3.138110952E0,1.050720453E0,1.184826255E0,-4.027570188E-1,1.634025686E0
3.140555952E0,1.050720453E0,1.221478224E0,-3.465574682E-1,1.648066929E0
3.143000171E0,1.034837961E0,1.207428336E0,-2.873035967E-1,1.615956729E0
3.145445223E0,1.006127357E0,1.144509196E0,-2.249953747E-1,1.540394910E0
3.147891056E0,9.682537317E-1,1.036997080E0,-1.614654362E-1,1.427917827E0
3.150336056E0,9.236606359E-1,8.910003304E-1,-9.304860234E-2,1.286735638E0
3.152780275E0,8.754022717E-1,7.132387161E-1,-2.524261177E-2,1.129458186E0
3.155225327E0,8.240896463E-1,5.079881549E-1,3.828731924E-2,9.688351921E-1
3.157671108E0,7.691118121E-1,2.825790644E-1,9.998464584E-2,8.254579557E-1
3.160116160E0,7.129122615E-1,5.106134713E-2,1.531298906E-1,7.309582185E-1
3.162560379E0,6.475497484E-1,-1.706825495E-1,1.977230161E-1,6.982460888E-1
3.165005379E0,5.809655190E-1,-3.912047148E-1,2.343748957E-1,7.385754226E-1
3.167451212E0,5.180464387E-1,-6.147812009E-1,2.600311935E-1,8.449522230E-1
3.169896212E0,4.618468881E-1,-8.408011198E-1,2.777462900E-1,9.986951851E-1
3.172340483E0,4.148102999E-1,-1.069264531E0,2.875201106E-1,1.182396734E0
3.174785483E0,3.714388907E-1,-1.290397525E0,2.905744314E-1,1.373872673E0
3.177231317E0,3.280675113E-1,-1.489539504E0,2.893527150E-1,1.552443629E0
3.179676317E0,2.798092067E-1,-1.652640343E0,2.844657898E-1,1.700127666E0
3.182120535E0,2.327726185E-1,-1.789474010E0,2.753028274E-1,1.825429257E0
3.184565587E0,1.869577765E-1,-1.892710209E0,2.612529397E-1,1.919780780E0
3.187011369E0,1.417537779E-1,-1.962348819E0,2.410944104E-1,1.982178987E0
3.189456421E0,1.026584283E-1,-2.000833273E0,2.166598290E-1,2.015146154E0
3.191900639E0,7.150433213E-2,-2.016715765E0,1.836731285E-1,2.026324546E0
3.194345692E0,4.951319844E-2,-2.017326593E0,1.415234655E-1,2.022890761E0
3.196791473E0,3.668504208E-2,-2.004498482E0,9.326514602E-2,2.007002328E0
3.199236525E0,3.118725866E-2,-1.981285572E0,3.828731924E-2,1.981900876E0
3.201680744E0,3.485244513E-2,-1.948909760E0,-1.852310263E-2,1.949309377E0
3.204125744E0,3.973936290E-2,-1.898208022E0,-7.838784158E-2,1.900241449E0
3.206571577E0,4.401541874E-2,-1.829180241E0,-1.370308548E-1,1.834833825E0
3.209016577E0,4.829147086E-2,-1.739994049E0,-1.907869428E-1,1.751088523E0
3.211460848E0,5.440011621E-2,-1.632481813E0,-2.408778518E-1,1.651053719E0
3.213905848E0,6.417395175E-2,-1.506643653E0,-2.873035967E-1,1.535134115E0
3.216351681E0,8.005643636E-2,-1.371031761E0,-3.294532597E-1,1.412330193E0
3.218796681E0,1.063236222E-1,-1.232976317E0,-3.654942811E-1,1.290395824E0
3.221240900E0,1.454189718E-1,-1.086368799E0,-3.935940564E-1,1.164585818E0
3.223685952E0,1.863469034E-1,-9.214352965E-1,-4.113091230E-1,1.026130288E0
3.226131733E0,2.309400290E-1,-7.332889438E-1,-4.149743021E-1,8.736415990E-1
3.228576785E0,2.743114233E-1,-5.145993829E-1,-4.045896232E-1,7.097549190E-1
3.231021004E0,3.195154071E-1,-2.671991885E-1,-3.783224225E-1,5.626840650E-1
3.233466004E0,3.677737117E-1,9.704395197E-4,-3.416705430E-1,5.019932317E-1
3.235911837E0,4.233624041E-1,2.892985642E-1,-2.928013802E-1,5.904761068E-1
3.238356889E0,4.795619547E-1,5.953418016E-1,-2.353800684E-1,7.998845578E-1
3.240801108E0,5.443136096E-1,9.074937105E-1,-1.681849509E-1,1.071498165E0
3.243246108E0,6.157847643E-1,1.213536978E0,-9.427033365E-2,1.364093020E0
3.245691942E0,6.951972246E-1,1.500032425E0,-1.363618299E-2,1.653354893E0
3.248136942E0,7.721661329E-1,1.765758634E0,7.555006444E-2,1.928691759E0
3.250581160E0,8.424155712E-1,2.002163172E0,1.684015095E-1,2.178687777E0
3.253026212E0,8.986151814E-1,2.220242023E0,2.636964023E-1,2.409672110E0
3.255472046E0,9.285475016E-1,2.435266256E0,3.650999367E-1,2.631733301E0
3.257917046E0,9.334344268E-1,2.659453630E0,4.640600085E-1,2.856456744E0
3.260361264E0,9.126650691E-1,2.860428333E0,5.599657893E-1,3.054270693E0
3.262806317E0,9.077781439E-1,3.021085739E0,6.534281373E-1,3.221488558E0
3.265252098E0,8.955608606E-1,3.116991282E0,7.420035005E-1,3.326895414E0
3.267697150E0,8.906739354E-1,3.187240839E0,8.244702220E-1,3.410506615E0
3.270141369E0,8.772348762E-1,3.223281860E0,9.002174735E-1,3.459693408E0
3.272586369E0,8.521894217E-1,3.225114346E0,9.710777998E-1,3.474274233E0
3.275032202E0,8.399721384E-1,3.190295219E0,1.032775044E0,3.456900501E0
3.277477254E0,8.027094007E-1,3.115769625E0,1.088974595E0,3.396796786E0
3.279921473E0,7.697227001E-1,3.036968231E0,1.137843728E0,3.333217278E0
3.282366473E0,6.994732618E-1,2.944116592E0,1.179993391E0,3.247994729E0
3.284812306E0,6.316672564E-1,2.849432707E0,1.214201808E0,3.161100489E0
3.287257306E0,5.449244976E-1,2.725427151E0,1.239858150E0,3.043377087E0
3.289701525E0,4.569599628E-1,2.591647625E0,1.256962299E0,2.916402586E0
3.292146577E0,3.653302491E-1,2.439542532E0,1.266736150E0,2.772986554E0
3.294592410E0,2.694244981E-1,2.272776365E0,1.267347097E0,2.616155697E0
3.297037410E0,1.887903661E-1,2.090738773E0,1.262460113E0,2.449619553E0
3.299481629E0,9.410632402E-2,1.897705436E0,1.249021053E0,2.273806393E0
3.301926681E0,1.835909858E-2,1.718722105E0,1.233138561E0,2.115413303E0
3.304372462E0,-7.204888016E-2,1.535462618E0,1.209925771E0,1.956209821E0
3.306817514E0,-1.416874528E-1,1.377859592E0,1.183047652E0,1.821585611E0
3.309261733E0,-2.217107266E-1,1.227586865E0,1.149450183E0,1.696278539E0
3.311706733E0,-2.944036424E-1,1.104192138E0,1.117074370E0,1.598051604E0
3.314152567E0,-3.658748269E-1,9.991235137E-1,1.084087610E0,1.518999056E0
3.316597619E0,-4.397894442E-1,9.184892774E-1,1.046213984E0,1.460000346E0
3.319041837E0,-4.984324574E-1,8.635114431E-1,1.011394739E0,1.420213451E0
3.321486837E0,-5.674601793E-1,8.213617802E-1,9.784081578E-1,1.397830016E0
3.323932671E0,-6.089989543E-1,8.085336089E-1,9.490866661E-1,1.387577682E0
3.326377671E0,-6.639767885E-1,7.975380421E-1,9.222086072E-1,1.388308618E0
3.328821942E0,-6.871896386E-1,8.067010045E-1,9.020500779E-1,1.391650263E0
3.331266942E0,-7.189546227E-1,8.134205341E-1,8.867784142E-1,1.401757708E0
3.333712775E0,-7.342262268E-1,8.372442722E-1,8.800589442E-1,1.419355441E0
3.336157775E0,-7.464435101E-1,8.635114431E-1,8.825023770E-1,1.442789095E0
3.338601994E0,-7.623260021E-1,8.916112185E-1,8.898327351E-1,1.472383712E0
3.341047046E0,-7.641586065E-1,9.221544266E-1,9.075478315E-1,1.502647739E0
3.343492827E0,-7.855388522E-1,9.447564483E-1,9.307606816E-1,1.541412171E0
3.345937879E0,-7.898149490E-1,9.740779400E-1,9.619147778E-1,1.580479524E0
3.348382098E0,-8.173038363E-1,9.862952232E-1,9.924580455E-1,1.620412540E0
3.350827098E0,-8.160821199E-1,9.783539772E-1,1.027888060E0,1.636985154E0
3.353272931E0,-8.111951947E-1,9.026067853E-1,1.060874820E0,1.611890826E0
3.355717983E0,-7.800410986E-1,7.712708712E-1,1.095694065E0,1.550441342E0
3.358162202E0,-7.446109653E-1,5.947309732E-1,1.129902482E0,1.478117059E0
3.360607202E0,-7.226198316E-1,3.821500242E-1,1.164110899E0,1.422452898E0
3.363053035E0,-7.116242647E-1,1.463562399E-1,1.197708488E0,1.400833632E0
3.365498035E0,-7.226198316E-1,-1.040982902E-1,1.228251696E0,1.428852023E0
3.367942306E0,-7.586608529E-1,-3.545528352E-1,1.256351471E0,1.509865233E0
3.370387306E0,-8.197473288E-1,-5.964552164E-1,1.279564381E0,1.632491811E0
3.372833139E0,-8.906075954E-1,-8.432446122E-1,1.297279358E0,1.785266674E0
3.375278139E0,-9.565809965E-1,-1.101640344E0,1.305831552E0,1.958023159E0
3.377722358E0,-1.012169719E0,-1.354538321E0,1.303998947E0,2.135339518E0
3.380167410E0,-1.065314889E0,-1.575060487E0,1.288116455E0,2.296727096E0
3.382613192E0,-1.110518932E0,-1.749767780E0,1.259405851E0,2.425086119E0
3.385058244E0,-1.140451312E0,-1.876827717E0,1.216645241E0,2.510644761E0
3.387502462E0,-1.152057767E0,-1.950131416E0,1.160445690E0,2.544972267E0
3.389947462E0,-1.140451312E0,-1.981896400E0,1.093861461E0,2.534773251E0
3.392393296E0,-1.108686328E0,-1.973344326E0,1.016281605E0,2.481149230E0
3.394838348E0,-1.057984591E0,-1.926918626E0,9.313715696E-1,2.387425346E0
3.397282567E0,-9.950654507E-1,-1.845062733E0,8.421853185E-1,2.259134314E0
3.399727567E0,-9.272595048E-1,-1.732052803E0,7.487230301E-1,2.102475512E0
3.402173400E0,-8.545665741E-1,-1.587888718E0,6.540389657E-1,1.918187055E0
3.404618400E0,-7.769867778E-1,-1.429063916E0,5.587440729E-1,1.719920658E0
3.407062671E0,-6.994069815E-1,-1.268406391E0,4.591731131E-1,1.519494931E0
3.409507671E0,-6.230488420E-1,-1.115079403E0,3.571586907E-1,1.326331129E0
3.411953504E0,-5.546320081E-1,-9.684718847E-1,2.533116937E-1,1.144430544E0
3.414398504E0,-4.923238158E-1,-8.340816498E-1,1.451886594E-1,9.793644291E-1
3.416842723E0,-4.349025190E-1,-7.167955637E-1,3.462213278E-2,8.391273880E-1
3.419287775E0,-3.823681772E-1,-6.172246337E-1,-7.716611028E-2,7.301549698E-1
3.421733556E0,-3.280012012E-1,-5.298709869E-1,-1.883434802E-1,6.510156045E-1
3.424178608E0,-2.772994339E-1,-4.443499446E-1,-2.982991636E-1,6.027638346E-1
3.426622827E0,-2.327062935E-1,-3.563854396E-1,-3.997026980E-1,5.838878723E-1
3.429067879E0,-1.862805784E-1,-2.665883303E-1,-4.956084788E-1,5.927879519E-1
3.431513660E0,-1.349679381E-1,-1.712934077E-1,-5.792968869E-1,6.189851848E-1
3.433958712E0,-7.999011874E-2,-7.050073147E-2,-6.513789296E-1,6.600479393E-1
3.436402931E0,-2.379056811E-2,4.128751159E-2,-7.094110847E-1,7.110096601E-1
3.438847931E0,3.057639301E-2,1.695691049E-1,-7.570585012E-1,7.764188119E-1
3.441293764E0,8.555421978E-2,3.106788397E-1,-7.961538434E-1,8.588956912E-1
3.443738764E0,1.368668675E-1,4.572863579E-1,-8.273079395E-1,9.551344300E-1
3.446183035E0,1.869577765E-1,6.032830477E-1,-8.529642820E-1,1.061344295E0
3.448628035E0,2.382704020E-1,7.346189618E-1,-8.773988485E-1,1.168874049E0
3.451073869E0,2.914156318E-1,8.409094214E-1,-9.024443030E-1,1.267461023E0
3.453518869E0,3.396739364E-1,9.227653146E-1,-9.287115335E-1,1.352545497E0
3.455963087E0,3.818235993E-1,9.765213728E-1,-9.562004209E-1,1.419049857E0
3.458408139E0,4.080907702E-1,1.001566887E0,-9.891871214E-1,1.465662126E0
3.460853973E0,4.239732623E-1,9.960690737E-1,-1.024617434E0,1.490552854E0
3.463298973E0,4.251950085E-1,9.551411271E-1,-1.063712716E0,1.491499283E0
3.465743192E0,4.233624041E-1,8.726744056E-1,-1.104029775E0,1.469584324E0
3.468188244E0,4.141994417E-1,7.474471331E-1,-1.146790385E0,1.430163131E0
3.470634025E0,3.989278078E-1,5.953418016E-1,-1.188329101E0,1.387696403E0
3.473079077E0,3.775475621E-1,4.242996871E-1,-1.229257107E0,1.354121642E0
3.475523296E0,3.506695032E-1,2.434837371E-1,-1.267741561E0,1.337692826E0
3.477968348E0,3.225697279E-1,6.388950348E-2,-1.301949978E0,1.342835374E0
3.480414129E0,2.932482064E-1,-1.108178049E-1,-1.331271529E0,1.367683802E0
3.482859181E0,2.682027519E-1,-2.800273299E-1,-1.355706096E0,1.410066325E0
3.485303400E0,2.510985434E-1,-4.376304448E-1,-1.374032021E0,1.463740031E0
3.487748400E0,2.394921333E-1,-5.750749707E-1,-1.385638475E0,1.519230624E0
3.490194233E0,2.266639769E-1,-6.746459007E-1,-1.391136169E0,1.562620713E0
3.492639233E0,2.138358206E-1,-7.308455110E-1,-1.392968774E0,1.587521000E0
3.495083504E0,2.083380371E-1,-7.552800775E-1,-1.385638475E0,1.591806118E0
3.497528504E0,2.095597684E-1,-7.485605478E-1,-1.375864625E0,1.580272653E0
3.499974337E0,2.162792832E-1,-7.112978101E-1,-1.357538700E0,1.547783132E0
3.502419337E0,2.217770666E-1,-6.410483718E-1,-1.336158395E0,1.498481678E0
3.504863556E0,2.217770666E-1,-5.365905166E-1,-1.314167261E0,1.436715017E0
3.507308608E0,2.181118727E-1,-4.174719155E-1,-1.289121866E0,1.372476147E0
3.509754389E0,2.193336040E-1,-3.038510680E-1,-1.264076352E0,1.318454294E0
3.512199442E0,2.272748351E-1,-2.250495106E-1,-1.241474390E0,1.282013960E0
3.514643660E0,2.401030064E-1,-1.841215640E-1,-1.220704913E0,1.257644898E0
3.517088712E0,2.468225062E-1,-1.786237955E-1,-1.202989936E0,1.240972440E0
3.519534494E0,2.401030064E-1,-2.018366456E-1,-1.191994309E0,1.232573697E0
3.521979546E0,2.175009996E-1,-2.629231215E-1,-1.185274839E0,1.233414649E0
3.524423764E0,1.912338287E-1,-3.728787899E-1,-1.180387855E0,1.252567146E0
3.526868764E0,1.661883742E-1,-5.310927033E-1,-1.176111817E0,1.301121456E0
3.529314598E0,1.478624344E-1,-7.302346230E-1,-1.166948915E0,1.384512793E0
3.531759650E0,1.319799423E-1,-9.348742962E-1,-1.148622990E0,1.486856895E0
3.534203869E0,1.154865921E-1,-1.122409821E0,-1.118690610E0,1.588902023E0
3.536648869E0,9.532805532E-2,-1.267184734E0,-1.078984380E0,1.667048854E0
3.539094702E0,7.822383940E-2,-1.365533948E0,-1.033169508E0,1.714129856E0
3.541539702E0,6.111963093E-2,-1.411348820E0,-9.794132710E-1,1.718979772E0
3.543983921E0,4.584801197E-2,-1.410127044E0,-9.287115335E-1,1.689101960E0
3.546428973E0,4.340455309E-2,-1.389357686E0,-8.835075498E-1,1.647053225E0
3.548874806E0,6.906086951E-2,-1.390579343E0,-8.468556404E-1,1.629614920E0
3.551319806E0,1.228169575E-1,-1.418679118E0,-8.236427903E-1,1.645029450E0
3.553764025E0,1.814599931E-1,-1.458385348E0,-8.108146191E-1,1.678462362E0
3.556209077E0,2.321617603E-1,-1.489539504E0,-8.120363355E-1,1.712317151E0
3.558654858E0,2.645375729E-1,-1.510308862E0,-8.242536187E-1,1.740806426E0
3.561099910E0,2.779766023E-1,-1.520082712E0,-8.492990732E-1,1.763301267E0
3.563544129E0,2.767548561E-1,-1.517639279E0,-8.828966618E-1,1.777450069E0
3.565989129E0,2.627049685E-1,-1.508476257E0,-9.268789291E-1,1.789865657E0
3.568434962E0,2.523202896E-1,-1.494426370E0,-9.769698381E-1,1.803176577E0
3.570880014E0,2.504876852E-1,-1.474267840E0,-1.032558680E0,1.817247141E0
3.573324233E0,2.559854686E-1,-1.443724632E0,-1.087536454E0,1.825542361E0
3.575769233E0,2.749222815E-1,-1.400353193E0,-1.138849139E0,1.825800835E0
3.578215067E0,3.036329150E-1,-1.342321038E0,-1.176111817E0,1.810319785E0
3.580660067E0,3.445608616E-1,-1.270849943E0,-1.195659518E0,1.778590298E0
3.583104337E0,3.934300244E-1,-1.188383102E0,-1.192605138E0,1.728973278E0
3.585549337E0,4.435209334E-1,-1.084536195E0,-1.169392347E0,1.655417784E0
3.587995171E0,4.905575216E-1,-9.495350718E-1,-1.129075289E0,1.554694357E0
3.590440171E0,5.333180428E-1,-7.937645316E-1,-1.077151775E0,1.440397936E0
3.592884442E0,5.779111981E-1,-6.355505586E-1,-1.014232635E0,1.329125165E0
3.595329442E0,6.286129355E-1,-4.773366451E-1,-9.500917792E-1,1.235183745E0
3.597775275E0,6.835907698E-1,-3.374486268E-1,-8.816749454E-1,1.165555072E0
3.600220275E0,7.385686040E-1,-2.189408541E-1,-8.102037311E-1,1.117966353E0
3.602664494E0,7.911029458E-1,-1.285328716E-1,-7.417868972E-1,1.092067933E0
3.605109546E0,8.332526088E-1,-6.561380625E-2,-6.697048545E-1,1.071036728E0
3.607555327E0,8.637958765E-1,-3.873576596E-2,-5.994554162E-1,1.052136195E0
3.610000379E0,8.784565926E-1,-3.995749727E-2,-5.279842615E-1,1.025694870E0
3.612444598E0,8.735697269E-1,-6.194862723E-2,-4.565131068E-1,9.876061548E-1
3.614889650E0,8.540220261E-1,-1.059308797E-1,-3.856528103E-1,9.430286647E-1
3.617335431E0,8.277548552E-1,-1.749586016E-1,-3.178468347E-1,9.037783040E-1
3.619780483E0,7.972115874E-1,-2.592579424E-1,-2.543168962E-1,8.760354328E-1
3.622224702E0,7.636140585E-1,-3.478333354E-1,-1.993390471E-1,8.624560947E-1
3.624669702E0,7.257404327E-1,-4.333544075E-1,-1.510807425E-1,8.586737500E-1
3.627115535E0,6.890885830E-1,-5.054363608E-1,-1.125962734E-1,8.619668850E-1
3.629560587E0,6.524366736E-1,-5.622467995E-1,-8.266389370E-2,8.652331454E-1
3.632004806E0,6.218934655E-1,-6.074507833E-1,-5.578584969E-2,8.711257071E-1
3.634449806E0,5.956262350E-1,-6.386048794E-1,-3.501644731E-2,8.739639325E-1
3.636895639E0,5.748568773E-1,-6.654829383E-1,-1.791223697E-2,8.795730889E-1
3.639340639E0,5.589743853E-1,-6.893066764E-1,-3.251483664E-3,8.874720444E-1
3.641784910E0,5.455353260E-1,-7.100760937E-1,1.079840586E-2,8.955073737E-1
3.644229910E0,5.339289308E-1,-7.247368097E-1,2.851348184E-2,9.006312037E-1
3.646675744E0,5.211007595E-1,-7.284020185E-1,4.500683025E-2,8.967391577E-1
3.649120744E0,5.021639466E-1,-7.198499441E-1,6.211104244E-2,8.798922394E-1
3.651564962E0,4.850597382E-1,-7.045782804E-1,7.799352705E-2,8.589508095E-1
3.654010014E0,4.667337835E-1,-6.758676767E-1,9.143254161E-2,8.264365982E-1
3.656455848E0,4.471861124E-1,-6.355505586E-1,9.998464584E-2,7.835157057E-1
3.658900848E0,4.258058667E-1,-5.775184631E-1,1.030389816E-1,7.248829168E-1
3.661345067E0,4.019821286E-1,-5.072689652E-1,1.036498398E-1,6.554805292E-1
3.663790119E0,3.806018829E-1,-4.254131615E-1,9.754119813E-2,5.790927703E-1
3.666235900E0,3.641085327E-1,-3.417246938E-1,8.837822080E-2,5.071109344E-1
3.668680952E0,3.604433239E-1,-2.757512927E-1,7.555006444E-2,4.600717089E-1
3.671125171E0,3.677737117E-1,-2.262712419E-1,6.272190809E-2,4.363372728E-1
3.673570171E0,3.799909949E-1,-1.804563850E-1,5.355893821E-2,4.240592211E-1
3.676016004E0,3.867105246E-1,-1.242568195E-1,4.989374802E-2,4.092360848E-1
3.678461056E0,3.903757036E-1,-5.645084381E-2,5.355893821E-2,3.980558347E-1
3.680905275E0,3.909865618E-1,3.578972816E-2,6.760882586E-2,3.983997358E-1
3.683350275E0,3.885430992E-1,1.487997025E-1,8.959995210E-2,4.255998623E-1
3.685796108E0,3.860996664E-1,2.868551016E-1,1.244192421E-1,4.968288936E-1
3.688241108E0,3.860996664E-1,4.499559999E-1,1.647363305E-1,6.153628302E-1
3.690685379E0,3.922083080E-1,6.295502782E-1,2.148272246E-1,7.722121768E-1
3.693130379E0,4.050364494E-1,8.158639669E-1,2.704159021E-1,9.501648794E-1
3.695576212E0,4.282493293E-1,1.001566887E0,3.296697736E-1,1.138075514E0
3.698021212E0,4.551273584E-1,1.179328442E0,3.925888538E-1,1.323662530E0
3.700465431E0,4.795619547E-1,1.347927213E0,4.603948295E-1,1.502947384E0
3.702910483E0,5.033856630E-1,1.500032425E0,5.288116932E-1,1.668273421E0
3.705356317E0,5.198790431E-1,1.630146623E0,6.015046239E-1,1.813686865E0
3.707801317E0,5.265985131E-1,1.741934896E0,6.748083830E-1,1.940878545E0
3.710245535E0,5.211007595E-1,1.841505885E0,7.493338585E-1,2.055283717E0
3.712690587E0,5.021639466E-1,1.934968114E0,8.232485056E-1,2.161945497E0
3.715136421E0,4.697881341E-1,2.025376081E0,8.971631527E-1,2.264453772E0
3.717581421E0,4.276384413E-1,2.108453751E0,9.668017030E-1,2.358634645E0
3.720025639E0,3.793801367E-1,2.184201002E0,1.035829306E0,2.446958450E0
3.722470692E0,3.299000859E-1,2.250174284E0,1.098748326E0,2.525740735E0
3.724916473E0,2.810309231E-1,2.295989275E0,1.159834862E0,2.587617058E0
3.727361525E0,2.388812751E-1,2.311260939E0,1.217256188E0,2.623109609E0
3.729805744E0,2.095597684E-1,2.284382820E0,1.269790530E0,2.621962653E0
3.732250744E0,1.790165305E-1,2.239178896E0,1.319270492E0,2.605080359E0
3.734696577E0,1.344234049E-1,2.198250771E0,1.365085363E0,2.591106743E0
3.737141629E0,7.822383940E-2,2.159766436E0,1.404180765E0,2.577291921E0
3.739585848E0,1.896996424E-2,2.107842922E0,1.442054391E0,2.553993444E0
3.742030848E0,-4.517083243E-2,2.047367334E0,1.474430203E0,2.523429775E0
3.744476681E0,-1.148094088E-1,1.982615709E0,1.502529979E0,2.490289659E0
3.746921681E0,-1.893348992E-1,1.913587928E0,1.523910165E0,2.453562441E0
3.749365952E0,-2.687473297E-1,1.843338490E0,1.541014433E0,2.417611920E0
3.751810952E0,-3.499923348E-1,1.771867275E0,1.552620888E0,2.381730442E0
3.754256785E0,-4.355134070E-1,1.706504703E0,1.558729529E0,2.351907305E0
3.756701785E0,-5.204235911E-1,1.647250891E0,1.560562134E0,2.328009962E0
3.759146056E0,-6.047229171E-1,1.597770810E0,1.555675149E0,2.310559789E0
3.761591056E0,-6.755832434E-1,1.541571259E0,1.548955679E0,2.287382426E0
3.764036889E0,-7.348371148E-1,1.478041291E0,1.537349224E0,2.255667148E0
3.766481889E0,-7.947018743E-1,1.433448195E0,1.519023299E0,2.234671471E0
3.768926108E0,-8.570100665E-1,1.413900614E0,1.500697374E0,2.232862246E0
3.771371160E0,-9.107661247E-1,1.399850607E0,1.478706241E0,2.230616238E0
3.773816994E0,-9.492506385E-1,1.377859592E0,1.459158540E0,2.220071502E0
3.776261994E0,-9.846807718E-1,1.368085742E0,1.437778354E0,2.215504776E0
3.778706212E0,-1.015834928E0,1.368696570E0,1.421284914E0,2.219302077E0
3.781151264E0,-1.041491151E0,1.369307399E0,1.409678578E0,2.224162823E0
3.783597046E0,-1.055541039E0,1.356479287E0,1.399904728E0,2.216739991E0
3.786042098E0,-1.059206247E0,1.323492527E0,1.398072124E0,2.197306534E0
3.788486317E0,-1.061038852E0,1.281953812E0,1.401126385E0,2.175399772E0
3.790931369E0,-1.065314889E0,1.233084559E0,1.410900235E0,2.155465800E0
3.793377150E0,-1.073256135E0,1.178106785E0,1.426782727E0,2.139047283E0
3.795822202E0,-1.087916970E0,1.118852854E0,1.445719600E0,2.127322308E0
3.798266421E0,-1.111129761E0,1.049214363E0,1.468321562E0,2.119299019E0
3.800711421E0,-1.138007879E0,9.545302987E-1,1.491534352E0,2.104961935E0
3.803157254E0,-1.155112028E0,8.073118925E-1,1.510471225E0,2.065807254E0
3.805602306E0,-1.155722857E0,5.928983688E-1,1.526964545E0,2.004705594E0
3.808046525E0,-1.145338178E0,3.173983395E-1,1.541625261E0,1.946573835E0
3.810491525E0,-1.132510066E0,7.079088595E-3,1.552620888E0,1.921785832E0
3.812937358E0,-1.134953499E0,-3.105705976E-1,1.556286097E0,1.951050987E0
3.815382358E0,-1.156944633E0,-6.227224469E-1,1.553231716E0,2.034412174E0
3.817826629E0,-1.189931273E0,-9.360960126E-1,1.540403605E0,2.159873942E0
3.820271629E0,-1.229637504E0,-1.257410884E0,1.516579866E0,2.322305969E0
3.822717462E0,-1.271176338E0,-1.585445285E0,1.481760502E0,2.514983145E0
3.825162462E0,-1.308439136E0,-1.915312171E0,1.436556578E0,2.728393022E0
3.827606733E0,-1.340204000E0,-2.247011662E0,1.380967855E0,2.958425322E0
3.830051733E0,-1.367692947E0,-2.551222324E0,1.311329246E0,3.177877238E0
3.832497567E0,-1.387240648E0,-2.827944040E0,1.232527733E0,3.382429411E0
3.834942567E0,-1.384797215E0,-3.086339951E0,1.140287161E0,3.569791650E0
3.837386785E0,-1.365249515E0,-3.316025019E0,1.035218477E0,3.732506592E0
3.839831837E0,-1.334706306E0,-3.502949476E0,9.167107940E-1,3.859074324E0
3.842277671E0,-1.299276114E0,-3.637339830E0,7.853748798E-1,3.941468402E0
3.844722671E0,-1.260791659E0,-3.711254358E0,6.412107944E-1,3.971669146E0
3.847166889E0,-1.219863653E0,-3.721028328E0,4.854402840E-1,3.945854967E0
3.849611942E0,-1.175881386E0,-3.653222322E0,3.174524903E-1,3.850909822E0
3.852057775E0,-1.122125387E0,-3.518221140E0,1.403017342E-1,3.695501312E0
3.854502775E0,-1.056151986E0,-3.319690228E0,-4.112509638E-2,3.483890282E0
3.856946994E0,-9.846807718E-1,-3.057018280E0,-2.207193226E-1,3.219266066E0
3.859392046E0,-9.009923339E-1,-2.737536192E0,-3.923723102E-1,2.908581719E0
3.861837827E0,-8.063082695E-1,-2.372238874E0,-5.505862236E-1,2.565306121E0
3.864282879E0,-6.981852055E-1,-1.967846513E0,-6.886416674E-1,2.198660916E0
3.866727098E0,-5.766231418E-1,-1.537797809E0,-8.016516566E-1,1.827556217E0
3.869172150E0,-4.422329068E-1,-1.093699098E0,-8.865618706E-1,1.475716643E0
3.871617931E0,-2.980688214E-1,-6.434918046E-1,-9.439831376E-1,1.180690852E0
3.874062983E0,-1.435200423E-1,-2.079453021E-1,-9.739155173E-1,1.006156392E0
3.876507202E0,1.591563970E-2,2.049992532E-1,-9.812458754E-1,1.002557464E0
3.878952202E0,1.753513366E-1,5.874006152E-1,-9.690285921E-1,1.146649025E0
3.881398035E0,3.286783695E-1,9.349825978E-1,-9.409288168E-1,1.366590270E0
3.883843087E0,4.655120671E-1,1.252021432E0,-9.042769074E-1,1.613064126E0
3.886287306E0,5.821872354E-1,1.533019185E0,-8.590729237E-1,1.851241769E0
3.888732306E0,6.762604117E-1,1.768813014E0,-8.144798279E-1,2.061408502E0
3.891178139E0,7.477315664E-1,1.963678837E0,-7.735518813E-1,2.239089007E0
3.893623139E0,7.972115874E-1,2.110897303E0,-7.350673676E-1,2.373132481E0
3.896067410E0,8.320308924E-1,2.215965986E0,-7.069675922E-1,2.470340834E0
3.898512410E0,8.515785933E-1,2.277052402E0,-6.892525554E-1,2.526899846E0
3.900958244E0,8.601306677E-1,2.299654484E0,-6.849764585E-1,2.549005347E0
3.903403244E0,8.595198393E-1,2.286826134E0,-6.886416674E-1,2.538222895E0
3.905847462E0,8.509677052E-1,2.242233038E0,-7.008589506E-1,2.498591263E0
3.908292514E0,8.363069296E-1,2.170762062E0,-7.246826887E-1,2.436551294E0
3.910738348E0,8.167592883E-1,2.079132318E0,-7.533933520E-1,2.357432603E0
3.913183348E0,7.898812294E-1,1.970398426E0,-7.869908810E-1,2.264009046E0
3.915627567E0,7.593380213E-1,1.847614527E0,-8.260862231E-1,2.161641071E0
3.918072619E0,7.239078283E-1,1.712002516E0,-8.688467741E-1,2.051801617E0
3.920518452E0,6.823690534E-1,1.565394998E0,-9.164941907E-1,1.938053308E0
3.922963452E0,6.402193904E-1,1.404126763E0,-9.684177041E-1,1.821890690E0
3.925407671E0,5.950154066E-1,1.219034672E0,-1.025228262E0,1.700347569E0
3.927852723E0,5.492005348E-1,1.019892812E0,-1.088147283E0,1.589297670E0
3.930298556E0,4.936118424E-1,8.164748549E-1,-1.157785892E0,1.500250650E0
3.932743556E0,4.270275831E-1,6.124460697E-1,-1.232922316E0,1.441367469E0
3.935187775E0,3.555564284E-1,4.023085535E-1,-1.308669448E0,1.414527578E0
3.937632827E0,2.816417813E-1,1.775103360E-1,-1.378918886E0,1.418537736E0
3.940078608E0,2.095597684E-1,-4.606614634E-2,-1.441227078E0,1.457111141E0
3.942523660E0,1.380885988E-1,-2.647557259E-1,-1.492539763E0,1.522116619E0
3.944967879E0,7.272606343E-2,-4.730606079E-1,-1.532856822E0,1.605841043E0
3.947412931E0,1.530477498E-2,-6.715915799E-1,-1.561567426E0,1.699930090E0
3.949858712E0,-3.051007912E-2,-8.530184031E-1,-1.581726074E0,1.797339321E0
3.952303764E0,-6.655109674E-2,-1.021617174E0,-1.593332410E0,1.893895157E0
3.954747983E0,-9.220741689E-2,-1.179831028E0,-1.598830223E0,1.989161015E0
3.957193035E0,-1.184745952E-1,-1.318497300E0,-1.595165014E0,2.072926140E0
3.959638817E0,-1.581808031E-1,-1.410127044E0,-1.584169507E0,2.126751625E0
3.962083869E0,-2.131586224E-1,-1.449833274E0,-1.566454411E0,2.145048377E0
3.964528087E0,-2.614169419E-1,-1.468159199E0,-1.542019844E0,2.145146953E0
3.966973087E0,-2.779102921E-1,-1.507865429E0,-1.512087464E0,2.153439291E0
3.969418921E0,-2.675255835E-1,-1.547571659E0,-1.476657271E0,2.155705146E0
3.971863973E0,-2.644712627E-1,-1.539630413E0,-1.433896780E0,2.120487405E0
3.974308192E0,-2.601952255E-1,-1.494426370E0,-1.386249304E0,2.054920646E0
3.976753192E0,-2.498105019E-1,-1.439448595E0,-1.336158395E0,1.979832518E0
3.979199025E0,-2.290410995E-1,-1.391190290E0,-1.287900090E0,1.909596002E0
3.981644077E0,-2.064391077E-1,-1.353927493E0,-1.240252614E0,1.847691346E0
3.984088296E0,-1.899457574E-1,-1.323384285E0,-1.198102951E0,1.795237042E0
3.986533296E0,-1.832262576E-1,-1.297727942E0,-1.166948915E0,1.754833167E0
3.988979129E0,-1.881131679E-1,-1.272682548E0,-1.143125176E0,1.721000465E0
3.991424129E0,-1.972761452E-1,-1.262908697E0,-1.124799252E0,1.702653697E0
3.993868400E0,-1.960544139E-1,-1.279402018E0,-1.115636230E0,1.708786427E0
3.996313400E0,-1.783393323E-1,-1.331325531E0,-1.111360192E0,1.743374333E0
3.998759233E0,-1.392439902E-1,-1.407072783E0,-1.110749364E0,1.798056410E0
4.001204233E0,-8.670963347E-2,-1.488317728E0,-1.112581968E0,1.860227636E0
4.003648504E0,-3.173180670E-2,-1.545739055E0,-1.115025401E0,1.906199826E0
4.006093504E0,1.163958758E-2,-1.552458525E0,-1.119912267E0,1.914279613E0
4.008539337E0,4.340455309E-2,-1.504200220E0,-1.124799252E0,1.878743094E0
4.010984337E0,6.295222044E-2,-1.394244552E0,-1.132129550E0,1.797108280E0
4.013428608E0,7.394778728E-2,-1.226867676E0,-1.140681744E0,1.676850443E0
4.015873608E0,9.654978663E-2,-1.039332151E0,-1.149844646E0,1.552957145E0
4.018319442E0,1.448080987E-1,-8.597379327E-1,-1.159618497E0,1.450804520E0
4.020764442E0,2.113923579E-1,-6.917501688E-1,-1.168170571E0,1.373982354E0
4.023208660E0,2.920264900E-1,-5.439208746E-1,-1.170614004E0,1.323429838E0
4.025653712E0,3.812127411E-1,-4.217479527E-1,-1.163894534E0,1.295316554E0
4.028099546E0,4.728424549E-1,-3.215661347E-1,-1.143125176E0,1.278170542E0
4.030544546E0,5.528657436E-1,-2.250495106E-1,-1.108916759E0,1.259366584E0
4.032988764E0,6.151739359E-1,-1.254785508E-1,-1.060658455E0,1.232550281E0
4.035433817E0,6.603779197E-1,-1.369031332E-2,-1.003237128E0,1.201154094E0
4.037879650E0,6.890885830E-1,1.164238751E-1,-9.403179288E-1,1.171578167E0
4.040324650E0,7.000841498E-1,2.630313933E-1,-8.737336993E-1,1.150093000E0
4.042768869E0,7.061927915E-1,4.200236201E-1,-8.083711863E-1,1.152645685E0
4.045213921E0,7.135231495E-1,5.727398396E-1,-7.460629344E-1,1.180574483E0
4.047659754E0,7.281839252E-1,7.101843953E-1,-6.855873466E-1,1.226639195E0
4.050104754E0,7.501749992E-1,8.152531385E-1,-6.287769079E-1,1.273876214E0
4.052548973E0,7.788856626E-1,8.787830472E-1,-5.731882453E-1,1.306700916E0
4.054994025E0,8.051528335E-1,9.001633525E-1,-5.151560903E-1,1.312993124E0
4.057439806E0,8.247005343E-1,8.842808604E-1,-4.534587860E-1,1.291397879E0
4.059884858E0,8.344743848E-1,8.305247426E-1,-3.893179893E-1,1.240035219E0
4.062329077E0,8.283656836E-1,7.468363047E-1,-3.184576929E-1,1.159900631E0
