"Time (s)","Gyroscope x (rad/s)","Gyroscope y (rad/s)","Gyroscope z (rad/s)","Absolute (rad/s)"
1.178257410E-1,-7.297218777E-3,-2.922446430E-1,-6.458811760E-1,7.089588664E-1
1.202699080E-1,1.835909858E-2,-2.928555012E-1,-6.306095123E-1,6.955355908E-1
1.227148560E-1,4.584801197E-2,-2.891903222E-1,-6.153379083E-1,6.814497956E-1
1.251605850E-1,7.578038424E-2,-2.806382179E-1,-6.000663042E-1,6.667683597E-1
1.276055850E-1,1.014367044E-1,-2.610905468E-1,-5.835729241E-1,6.473137079E-1
1.300497000E-1,1.222060993E-1,-2.250495106E-1,-5.744099617E-1,6.289105000E-1
1.324946480E-1,1.368668675E-1,-1.767911911E-1,-5.676904917E-1,6.101312638E-1
1.349404290E-1,1.496950239E-1,-1.297546029E-1,-5.658578873E-1,5.995331565E-1
1.373853770E-1,1.619123220E-1,-9.065926075E-2,-5.683013201E-1,5.978303204E-1
1.398295430E-1,1.698535532E-1,-7.111158967E-2,-5.744099617E-1,6.032030270E-1
1.422744910E-1,1.820708513E-1,-7.233332098E-2,-5.805186033E-1,6.126856886E-1
1.447202200E-1,1.912338287E-1,-9.432445467E-2,-5.860164165E-1,6.236046187E-1
1.471651680E-1,1.985642016E-1,-1.328089386E-1,-5.860164165E-1,6.328358372E-1
1.496093350E-1,2.016185224E-1,-1.755694598E-1,-5.847947001E-1,6.430081688E-1
1.520542830E-1,1.967316121E-1,-2.207734585E-1,-5.786859989E-1,6.498628567E-1
1.545000640E-1,1.832925826E-1,-2.635339797E-1,-5.695230365E-1,6.537605207E-1
1.569450120E-1,1.667992324E-1,-3.032402098E-1,-5.621926785E-1,6.601796850E-1
1.593891790E-1,1.460298300E-1,-3.441681564E-1,-5.566949248E-1,6.705860649E-1
1.618341270E-1,1.228169575E-1,-3.863178194E-1,-5.566949248E-1,6.886470082E-1
1.642798560E-1,9.899324179E-2,-4.345761240E-1,-5.634143949E-1,7.183953297E-1
1.667248040E-1,7.578038424E-2,-4.895539582E-1,-5.786859989E-1,7.617632375E-1
1.691689700E-1,5.501098186E-2,-5.481969118E-1,-6.012880206E-1,8.155325536E-1
1.716139180E-1,2.996552736E-2,-6.208898425E-1,-6.324421167E-1,8.867836040E-1
1.740597000E-1,5.530940369E-3,-6.972479224E-1,-6.697048545E-1,9.667935916E-1
1.765046480E-1,-1.890364848E-2,-7.778820395E-1,-7.142980099E-1,1.056257290E0
1.789488140E-1,-4.333823919E-2,-8.585162163E-1,-7.631671429E-1,1.149500928E0
1.813937620E-1,-8.182271570E-2,-9.464807510E-1,-8.132580519E-1,1.250563644E0
1.838394910E-1,-1.007595211E-1,-1.030169249E0,-8.651815653E-1,1.349051631E0
1.862844390E-1,-1.441309154E-1,-1.117522836E0,-9.158833623E-1,1.452058312E0
1.887286060E-1,-1.667329073E-1,-1.185939670E0,-9.629199505E-1,1.536706736E0
1.911735540E-1,-2.058282495E-1,-1.254967451E0,-1.011178374E0,1.624743142E0
1.936193350E-1,-2.296519727E-1,-1.300782323E0,-1.055771470E0,1.690984352E0
1.960642830E-1,-2.546974421E-1,-1.342931986E0,-1.096699476E0,1.752451667E0
1.985084500E-1,-2.699690461E-1,-1.366144776E0,-1.135183930E0,1.796629453E0
2.009533980E-1,-2.663038671E-1,-1.379583836E0,-1.164505363E0,1.824895079E0
2.033991270E-1,-2.601952255E-1,-1.380805492E0,-1.184663892E0,1.837866671E0
2.058440750E-1,-2.241541892E-1,-1.356981874E0,-1.192605138E0,1.820426302E0
2.082882410E-1,-1.948326826E-1,-1.319719076E0,-1.184663892E0,1.784109512E0
2.107331890E-1,-1.361896694E-1,-1.243360996E0,-1.162672877E0,1.707718482E0
2.131789700E-1,-9.281828254E-2,-1.142568350E0,-1.127853513E0,1.608145271E0
2.156239180E-1,-3.417526558E-2,-1.003291130E0,-1.084482193E0,1.477789791E0
2.180680850E-1,2.202428877E-2,-8.603488207E-1,-1.038667321E0,1.348893979E0
2.205130330E-1,8.677595109E-2,-7.131304145E-1,-9.904088378E-1,1.223517356E0
2.229587620E-1,1.625231802E-1,-5.738532543E-1,-9.452048540E-1,1.117646437E0
2.254037100E-1,2.211661935E-1,-4.437390864E-1,-9.048877954E-1,1.031814317E0
2.278478770E-1,2.901938856E-1,-3.172900975E-1,-8.682358861E-1,9.688751473E-1
2.302928250E-1,3.280675113E-1,-2.195517272E-1,-8.419687152E-1,9.299153565E-1
2.327386060E-1,3.769366741E-1,-1.285328716E-1,-8.205884695E-1,9.121224653E-1
2.351835540E-1,3.915974498E-1,-6.927900016E-2,-8.083711863E-1,9.008951755E-1
2.376277200E-1,4.105342329E-1,-2.224241756E-2,-7.943212986E-1,8.944156790E-1
2.400726680E-1,4.160320163E-1,-7.581664715E-3,-7.766062021E-1,8.810546597E-1
2.425183980E-1,4.154211581E-1,-2.083883155E-3,-7.527824640E-1,8.598026048E-1
2.449633450E-1,4.215297997E-1,-6.970800925E-3,-7.204066515E-1,8.346985729E-1
2.474075120E-1,4.172537625E-1,-1.674463600E-2,-6.813113093E-1,7.991033634E-1
2.498524600E-1,4.325253665E-1,-1.369031332E-2,-6.306095123E-1,7.648097636E-1
2.522982410E-1,4.276384413E-1,-5.138205830E-3,-5.725773573E-1,7.146648639E-1
2.547431890E-1,4.484078586E-1,3.151367605E-2,-5.108800530E-1,6.804859646E-1
2.571873560E-1,4.532947838E-1,6.388950348E-2,-4.497936070E-1,6.417727936E-1
2.596323040E-1,4.752859175E-1,1.090935022E-1,-3.887071311E-1,6.236115212E-1
2.620780330E-1,4.856705964E-1,1.414693296E-1,-3.337292969E-1,6.060237149E-1
2.645229810E-1,4.991096258E-1,1.677365154E-1,-2.879144549E-1,6.001172307E-1
2.669671480E-1,5.070508718E-1,1.805646718E-1,-2.537060380E-1,5.950386047E-1
2.694120950E-1,4.893358052E-1,1.768994778E-1,-2.341583371E-1,5.705901176E-1
2.718578770E-1,4.783402383E-1,1.597952694E-1,-2.280496955E-1,5.534894537E-1
2.743028250E-1,4.306927919E-1,1.152021438E-1,-2.378235310E-1,5.052997594E-1
2.767469910E-1,3.946517706E-1,5.533739924E-2,-2.604255378E-1,4.760606144E-1
2.791919390E-1,3.323435485E-1,-4.606614634E-2,-2.940230966E-1,4.461209538E-1
2.816376680E-1,2.810309231E-1,-1.602978408E-1,-3.331184387E-1,4.643723417E-1
2.840826160E-1,2.223879248E-1,-3.062945306E-1,-3.722137809E-1,5.308632849E-1
2.865267830E-1,1.704644263E-1,-4.522911906E-1,-4.082548022E-1,6.326906237E-1
2.889717310E-1,1.325908154E-1,-5.891248584E-1,-4.351328611E-1,7.443043933E-1
2.914175120E-1,8.921940625E-2,-7.015239596E-1,-4.552913904E-1,8.410625533E-1
2.938624600E-1,7.150433213E-2,-7.681082487E-1,-4.626217484E-1,8.995121085E-1
2.963066270E-1,4.401541874E-2,-8.059818149E-1,-4.632326365E-1,9.306602594E-1
2.987515750E-1,4.951319844E-2,-7.949862480E-1,-4.559022486E-1,9.177698795E-1
3.011973040E-1,4.829147086E-2,-7.613887191E-1,-4.424632192E-1,8.819402179E-1
3.036422520E-1,7.333692163E-2,-6.886957884E-1,-4.259698689E-1,8.130993311E-1
3.060864180E-1,9.777151048E-2,-6.062290668E-1,-4.088656604E-1,7.377290004E-1
3.085313660E-1,1.338125318E-1,-5.017712116E-1,-3.917614520E-1,6.505053249E-1
3.109771480E-1,1.814599931E-1,-3.930373192E-1,-3.728246391E-1,5.713180155E-1
3.134220950E-1,2.187227309E-1,-2.775838673E-1,-3.563312888E-1,5.018609606E-1
3.158662620E-1,2.779766023E-1,-1.615195721E-1,-3.398379385E-1,4.678134116E-1
3.183112100E-1,3.127958775E-1,-5.339651927E-2,-3.282315135E-1,4.565395664E-1
3.207569390E-1,3.659411073E-1,6.144605204E-2,-3.154033720E-1,4.869987663E-1
3.232018870E-1,3.977060914E-1,1.585735381E-1,-3.025752008E-1,5.242780314E-1
3.256460540E-1,4.465752542E-1,2.520358264E-1,-2.903579175E-1,5.892870572E-1
3.280910020E-1,4.881140590E-1,3.247287273E-1,-2.744754255E-1,6.473336390E-1
3.305367830E-1,5.302637219E-1,4.041411281E-1,-2.543168962E-1,7.135732267E-1
3.329817310E-1,5.730242729E-1,4.866078794E-1,-2.292714268E-1,7.859449299E-1
3.354258980E-1,5.992914438E-1,5.825136900E-1,-1.981173158E-1,8.589079721E-1
3.378708450E-1,6.377758980E-1,6.912475824E-1,-1.590219736E-1,9.538706958E-1
3.403165750E-1,6.524366736E-1,8.024249673E-1,-1.156505942E-1,1.040641389E0
3.427615230E-1,6.903102994E-1,9.233762026E-1,-6.311622262E-2,1.154614905E0
3.452056890E-1,7.055819035E-1,1.031499267E0,-6.916671991E-3,1.249753736E0
3.476506370E-1,7.404012084E-1,1.144509196E0,5.661325902E-2,1.364294804E0
3.500964180E-1,7.636140585E-1,1.242247581E0,1.231975108E-1,1.463373879E0
3.525413660E-1,7.843834758E-1,1.339985967E0,1.928361058E-1,1.564610364E0
3.549855330E-1,8.088180423E-1,1.427339554E0,2.667507231E-1,1.662119363E0
3.574304810E-1,8.112614751E-1,1.510417223E0,3.382218778E-1,1.747540960E0
3.598762100E-1,8.253113627E-1,1.589829564E0,4.127473831E-1,1.838221230E0
3.623211580E-1,8.112614751E-1,1.646640062E0,4.836076796E-1,1.898274233E0
3.647653250E-1,8.112614751E-1,1.704061270E0,5.520245433E-1,1.966392913E0
3.672102730E-1,7.819399834E-1,1.734604478E0,6.112784743E-1,1.998485478E0
3.696560540E-1,7.593380213E-1,1.765758634E0,6.668671370E-1,2.034504746E0
3.721010020E-1,7.184100747E-1,1.769423842E0,7.163471580E-1,2.039638944E0
3.745451680E-1,6.768712401E-1,1.766369462E0,7.578859925E-1,2.037794624E0
3.769901160E-1,6.298346519E-1,1.745600104E0,7.920944095E-1,2.017727674E0
3.794358450E-1,5.663047433E-1,1.710780859E0,8.201941848E-1,1.979947148E0
3.818807930E-1,5.162138343E-1,1.670463681E0,8.440179229E-1,1.941466427E0
3.843249600E-1,4.404666126E-1,1.612431645E0,8.605112433E-1,1.880006981E0
3.867699080E-1,3.873213828E-1,1.559286356E0,8.794480562E-1,1.831616957E0
3.892156890E-1,3.127958775E-1,1.492702127E0,8.947196603E-1,1.768198001E0
3.916606370E-1,2.559854686E-1,1.444443822E0,9.118238688E-1,1.727243261E0
3.941048040E-1,1.863469034E-1,1.392520308E0,9.277063608E-1,1.683590529E0
3.965497520E-1,1.203735098E-1,1.358311892E0,9.448105693E-1,1.658965940E0
3.989954810E-1,5.989789963E-2,1.329601169E0,9.631365538E-1,1.642881325E0
4.014404290E-1,-1.035154238E-2,1.307610035E0,9.820733070E-1,1.635365139E0
4.038845950E-1,-6.044244766E-2,1.294171095E0,1.003453612E0,1.638734653E0
4.063295430E-1,-1.264158338E-1,1.275845170E0,1.021168590E0,1.639068989E0
4.087753250E-1,-1.661220342E-1,1.264238715E0,1.040716171E0,1.645899817E0
4.112202730E-1,-2.253759205E-1,1.245301843E0,1.057209611E0,1.649018844E0
4.136644390E-1,-2.614169419E-1,1.242858410E0,1.074924707E0,1.663880696E0
4.161093870E-1,-3.078426719E-1,1.231251955E0,1.094472289E0,1.675893218E0
4.185551160E-1,-3.432728350E-1,1.230641127E0,1.113409162E0,1.694695779E0
4.210000640E-1,-3.738160729E-1,1.230030298E0,1.135400295E0,1.715181279E0
4.234442310E-1,-4.092462063E-1,1.232473731E0,1.156780481E0,1.739142041E0
4.258891790E-1,-4.300156236E-1,1.245912790E0,1.181825995E0,1.770289468E0
4.283349600E-1,-4.691109657E-1,1.256908298E0,1.205649734E0,1.803739129E0
4.307799080E-1,-4.837717116E-1,1.278899431E0,1.230695128E0,1.839627496E0
4.332240750E-1,-5.216453075E-1,1.289284110E0,1.255129695E0,1.873424110E0
4.356690230E-1,-5.375277996E-1,1.313718796E0,1.280175209E0,1.911450176E0
4.381147520E-1,-5.674601793E-1,1.328990340E0,1.303998947E0,1.946442815E0
4.405597000E-1,-5.937273502E-1,1.357700944E0,1.329044342E0,1.990533316E0
4.430038660E-1,-6.132750511E-1,1.379692078E0,1.354089856E0,2.028106471E0
4.454488140E-1,-6.413748264E-1,1.398628950E0,1.375470042E0,2.063841672E0
4.478945950E-1,-6.542029381E-1,1.420009255E0,1.397461176E0,2.096975324E0
4.503395430E-1,-6.914657354E-1,1.435280800E0,1.416398048E0,2.131745592E0
4.527837100E-1,-7.042938471E-1,1.454217672E0,1.436556578E0,2.162053113E0
4.552286580E-1,-7.293393016E-1,1.432837367E0,1.455493331E0,2.168736861E0
4.576743870E-1,-7.183437347E-1,1.388244271E0,1.476873636E0,2.150440796E0
4.601193350E-1,-7.134568691E-1,1.306999207E0,1.501919150E0,2.114953608E0
4.625635020E-1,-6.932982802E-1,1.216591239E0,1.529407978E0,2.073606885E0
4.650084500E-1,-6.700854301E-1,1.106024742E0,1.557507753E0,2.024385244E0
4.674542310E-1,-6.627550721E-1,9.979016781E-1,1.582553267E0,1.984824146E0
4.698991790E-1,-6.621441841E-1,9.197109938E-1,1.606377006E0,1.965896822E0
4.723433450E-1,-7.116242647E-1,8.726744056E-1,1.616150856E0,1.969749553E0
4.747882930E-1,-7.690455317E-1,8.720635176E-1,1.617983341E0,1.992434667E0
4.772340230E-1,-8.710599542E-1,8.751178980E-1,1.599657416E0,2.020762388E0
4.796789700E-1,-9.571918845E-1,8.793939352E-1,1.563616395E0,2.033333772E0
4.821231370E-1,-1.043323755E0,8.262487054E-1,1.510471225E0,2.013140507E0
4.845680850E-1,-1.090971231E0,7.162930369E-1,1.445719600E0,1.947665039E0
4.870138660E-1,-1.099523306E0,5.336444974E-1,1.374859214E0,1.839555872E0
4.894588140E-1,-1.078143120E0,3.021267354E-1,1.307664156E0,1.721528012E0
4.919029810E-1,-1.021943569E0,7.366333902E-2,1.252075434E0,1.617865210E0
4.943479290E-1,-9.901785851E-1,-1.095960736E-1,1.209925771E0,1.567285966E0
4.967936580E-1,-9.620788097E-1,-2.012257874E-1,1.187323809E0,1.541371234E0
4.992386060E-1,-9.804047346E-1,-2.305472940E-1,1.175106525E0,1.547650104E0
5.016827730E-1,-9.944546223E-1,-2.073344290E-1,1.174495578E0,1.552857825E0
5.041277200E-1,-1.030495644E0,-1.792346537E-1,1.176939011E0,1.574557642E0
5.065735020E-1,-1.059817195E0,-1.511348784E-1,1.176939011E0,1.590987012E0
5.090184500E-1,-1.080586553E0,-1.657956243E-1,1.170219541E0,1.601427257E0
5.114626160E-1,-1.092193007E0,-2.336016148E-1,1.158613086E0,1.609297848E0
5.139075640E-1,-1.071423531E0,-3.582180440E-1,1.138454556E0,1.603853898E0
5.163532930E-1,-1.056151986E0,-5.420882702E-1,1.108522177E0,1.624234628E0
5.187982410E-1,-1.021943569E0,-7.296237350E-1,1.076757193E0,1.654123788E0
5.212424080E-1,-1.032939076E0,-9.000549912E-1,1.033385873E0,1.716085221E0
5.236873560E-1,-1.054930210E0,-1.008788943E0,9.808515906E-1,1.758579746E0
5.261331370E-1,-1.111129761E0,-1.099196911E0,9.179325104E-1,1.812579181E0
5.285780850E-1,-1.159999013E0,-1.167613745E0,8.440179229E-1,1.849671814E0
5.310222520E-1,-1.209478974E0,-1.226867676E0,7.652163506E-1,1.885099400E0
5.334672000E-1,-1.263845921E0,-1.252523899E0,6.772518158E-1,1.903888823E0
5.359129290E-1,-1.293778300E0,-1.251302242E0,5.837895274E-1,1.892202369E0
5.383578770E-1,-1.323099852E0,-1.242139220E0,4.836076796E-1,1.878131904E0
5.408020430E-1,-1.302941322E0,-1.210985184E0,3.858693242E-1,1.820174810E0
5.432469910E-1,-1.282171845E0,-1.171278954E0,2.881309688E-1,1.760363168E0
5.456927730E-1,-1.215587616E0,-1.098586082E0,2.013882101E-1,1.650788249E0
5.481377200E-1,-1.147781610E0,-1.011232376E0,1.244192421E-1,1.534755255E0
5.505818870E-1,-1.054930210E0,-8.890594244E-1,5.905672163E-2,1.380866433E0
5.530268350E-1,-9.523049593E-1,-7.534474730E-1,8.354946971E-3,1.214346588E0
5.554725640E-1,-8.447927833E-1,-6.056182384E-1,-2.890780196E-2,1.039848046E0
5.579175120E-1,-7.189546227E-1,-4.449608326E-1,-4.845546931E-2,8.468965844E-1
5.603616790E-1,-6.120532751E-1,-2.879685760E-1,-5.761844292E-2,6.788630180E-1
5.628066270E-1,-4.911020994E-1,-1.260894239E-1,-5.150979385E-2,5.096401414E-1
5.652524080E-1,-4.037484229E-1,1.563119330E-2,-4.051423073E-2,4.060769952E-1
5.676973560E-1,-3.053992093E-1,1.494105607E-1,-2.524261177E-2,3.409243056E-1
5.701415230E-1,-2.375932187E-1,2.422619909E-1,-1.241445355E-2,3.395519525E-1
5.725864700E-1,-1.685654968E-1,3.076245189E-1,-1.119272411E-2,3.509593258E-1
5.750322000E-1,-1.117550880E-1,3.308373690E-1,-1.852310263E-2,3.496936798E-1
5.774771480E-1,-6.655109674E-2,3.253395855E-1,-4.356855154E-2,3.349225479E-1
5.799213140E-1,-1.401673071E-2,3.002941310E-1,-7.960957289E-2,3.109834690E-1
5.823662620E-1,1.225045230E-2,2.575336099E-1,-1.297004670E-1,2.886101955E-1
5.848120430E-1,6.050876528E-2,2.178274244E-1,-1.865108907E-1,2.930808930E-1
5.872569910E-1,8.066730201E-2,1.659039110E-1,-2.506517172E-1,3.112195441E-1
5.897011580E-1,1.258713007E-1,1.310846210E-1,-3.154033720E-1,3.640138037E-1
5.921461060E-1,1.527493447E-1,9.626533091E-2,-3.862636685E-1,4.263789370E-1
5.945918350E-1,1.887903661E-1,8.588063717E-2,-4.546805322E-1,4.997516108E-1
5.970367830E-1,2.187227309E-1,7.671767473E-2,-5.237082243E-1,5.727089477E-1
5.994809500E-1,2.468225062E-1,7.488507032E-2,-5.927358866E-1,6.464247478E-1
6.019258980E-1,2.883613110E-1,7.427421212E-2,-6.599310637E-1,7.240013211E-1
6.043716790E-1,3.152393401E-1,5.961345136E-2,-7.252935767E-1,7.930828314E-1
6.068166270E-1,3.610542119E-1,5.472653359E-2,-7.918778062E-1,8.720238513E-1
6.092607930E-1,3.787692785E-1,3.884404898E-2,-8.590729237E-1,9.396708544E-1
6.117057410E-1,4.148102999E-1,3.578972816E-2,-9.232137203E-1,1.012754690E0
6.141514700E-1,4.300819039E-1,1.624205895E-2,-9.897980094E-1,1.079321244E0
6.165964180E-1,4.581816792E-1,-3.305612598E-3,-1.055771470E0,1.150910411E0
6.190405850E-1,4.826162755E-1,-3.507057950E-2,-1.116247058E0,1.216616583E0
6.214855330E-1,5.015531182E-1,-6.683553755E-2,-1.173057556E0,1.277531428E0
6.239313140E-1,5.290420055E-1,-9.554618597E-2,-1.222537518E0,1.335519561E0
6.263762620E-1,5.375940800E-1,-1.230351031E-1,-1.269574165E0,1.384183367E0
6.288204290E-1,5.675264597E-1,-1.364741176E-1,-1.302560806E0,1.427366849E0
6.312653770E-1,5.760785937E-1,-1.602978408E-1,-1.330660582E0,1.458841845E0
6.337111060E-1,6.102870107E-1,-1.700716764E-1,-1.347154021E0,1.488690219E0
6.361560540E-1,6.328889728E-1,-1.945062727E-1,-1.356927752E0,1.509845710E0
6.386002200E-1,6.701517701E-1,-2.061126977E-1,-1.355706096E0,1.526278106E0
6.410451680E-1,7.013058662E-1,-2.158865333E-1,-1.350208282E0,1.536717059E0
6.434909500E-1,7.214643955E-1,-2.079453021E-1,-1.342877865E0,1.538529520E0
6.459358980E-1,7.495641708E-1,-1.957280040E-1,-1.328827977E0,1.538161139E0
6.483800640E-1,7.611705661E-1,-1.963388622E-1,-1.313556433E0,1.530803737E0
6.508250120E-1,7.941572666E-1,-1.993931830E-1,-1.291565299E0,1.529243057E0
6.532707410E-1,8.014876842E-1,-2.201625854E-1,-1.270184994E0,1.517967058E0
6.557156890E-1,8.314200640E-1,-2.427645773E-1,-1.242696047E0,1.514756557E0
6.581598560E-1,8.405830264E-1,-2.898011804E-1,-1.214596272E0,1.505260327E0
6.606048040E-1,8.607415557E-1,-3.337834477E-1,-1.185274839E0,1.502386056E0
6.630505850E-1,8.717371225E-1,-3.899829984E-1,-1.157785892E0,1.500826613E0
6.654955330E-1,8.747914433E-1,-4.394630492E-1,-1.136405587E0,1.499935165E0
6.679397000E-1,8.833435178E-1,-4.852778912E-1,-1.119301438E0,1.506195908E0
6.703846480E-1,8.692936301E-1,-5.335361958E-1,-1.111971021E0,1.508910812E0
6.728303770E-1,8.735697269E-1,-5.683554411E-1,-1.113192797E0,1.524909892E0
6.752753250E-1,8.473024964E-1,-6.043964624E-1,-1.127853513E0,1.534688943E0
6.777194910E-1,8.369178176E-1,-6.208898425E-1,-1.146179438E0,1.549084547E0
6.801644390E-1,8.082071543E-1,-6.471570134E-1,-1.169392347E0,1.561886509E0
6.826102200E-1,7.959898710E-1,-6.630395055E-1,-1.191994309E0,1.579263023E0
6.850551680E-1,7.733879089E-1,-6.929718852E-1,-1.211542010E0,1.595673192E0
6.874993350E-1,7.654466629E-1,-7.198499441E-1,-1.222537518E0,1.612045445E0
6.899442830E-1,7.617814541E-1,-7.528365850E-1,-1.224370122E0,1.626700988E0
6.923900120E-1,7.617814541E-1,-7.723842859E-1,-1.215207219E0,1.628992650E0
6.948349600E-1,7.611705661E-1,-7.772712111E-1,-1.195659518E0,1.616518744E0
6.972791270E-1,7.617814541E-1,-7.656647563E-1,-1.169392347E0,1.591864305E0
6.997240750E-1,7.666683793E-1,-7.497822642E-1,-1.135183930E0,1.561600590E0
7.021698560E-1,7.764422297E-1,-7.265694141E-1,-1.097921133E0,1.528462124E0
7.046148040E-1,7.898812294E-1,-6.960262060E-1,-1.060658455E0,1.494443440E0
7.070589700E-1,8.039311171E-1,-6.599851847E-1,-1.021563053E0,1.457901491E0
7.095039180E-1,8.192027211E-1,-6.215006709E-1,-9.861328006E-1,1.424715439E0
7.119496480E-1,8.332526088E-1,-5.879031420E-1,-9.525352120E-1,1.395443781E0
7.143945950E-1,8.515785933E-1,-5.775184631E-1,-9.201593995E-1,1.380364805E0
7.168387620E-1,8.747914433E-1,-6.043964624E-1,-8.932813406E-1,1.388706847E0
7.192837100E-1,9.028912187E-1,-6.654829383E-1,-8.743445277E-1,1.422166814E0
7.217294910E-1,9.163302183E-1,-7.247368097E-1,-8.627381325E-1,1.452315943E0
7.241744390E-1,9.047238231E-1,-7.534474730E-1,-8.535751700E-1,1.454234803E0
7.266186060E-1,8.705154061E-1,-7.571126819E-1,-8.438013196E-1,1.429341580E0
7.290635540E-1,8.314200640E-1,-7.699408531E-1,-8.315840364E-1,1.405560475E0
7.315092830E-1,8.014876842E-1,-8.108687401E-1,-8.132580519E-1,1.400456811E0
7.339542310E-1,7.758313417E-1,-8.572944999E-1,-7.906560898E-1,1.400715954E0
7.363983980E-1,7.465098500E-1,-8.896703124E-1,-7.582802773E-1,1.387003677E0
7.388433450E-1,7.232969999E-1,-9.159374833E-1,-7.216283679E-1,1.372168913E0
7.412891270E-1,7.159665823E-1,-9.464807510E-1,-6.800895929E-1,1.367828868E0
7.437340750E-1,7.165774703E-1,-9.764130712E-1,-6.367181540E-1,1.368311282E0
7.461782410E-1,7.153557539E-1,-9.874086380E-1,-5.970119834E-1,1.357620338E0
7.486231890E-1,7.116905451E-1,-9.819108844E-1,-5.615817904E-1,1.336423033E0
7.510689180E-1,7.013058662E-1,-9.525893927E-1,-5.255407691E-1,1.294391583E0
7.535139180E-1,6.903102994E-1,-9.196026921E-1,-4.919432700E-1,1.250682055E0
7.559580330E-1,6.921429038E-1,-9.024984837E-1,-4.552913904E-1,1.225094104E0
7.584029810E-1,6.945863366E-1,-8.823399544E-1,-4.149743021E-1,1.197153977E0
7.608487620E-1,6.939754486E-1,-8.438554406E-1,-3.679377139E-1,1.152853889E0
7.632937100E-1,6.896994114E-1,-7.882667780E-1,-3.105164468E-1,1.092460642E0
7.657378770E-1,6.817581654E-1,-7.229042649E-1,-2.457647771E-1,1.023613745E0
7.681828250E-1,6.719843149E-1,-6.526548266E-1,-1.797913760E-1,9.538585750E-1
7.706285540E-1,6.634322405E-1,-5.891248584E-1,-1.144288629E-1,8.945973402E-1
7.730735540E-1,6.524366736E-1,-5.329253078E-1,-5.517498404E-2,8.442317665E-1
7.755176680E-1,6.377758980E-1,-4.907756746E-1,-4.473213106E-3,8.047601310E-1
7.779626160E-1,6.163956523E-1,-4.614541829E-1,3.767645359E-2,7.709105514E-1
7.804083980E-1,5.895175934E-1,-4.492368698E-1,7.005228102E-2,7.444810811E-1
7.828533450E-1,5.608069897E-1,-4.547346532E-1,9.509773552E-2,7.282387409E-1
7.852975120E-1,5.272094011E-1,-4.871104956E-1,1.164779961E-1,7.271818969E-1
7.877424600E-1,4.991096258E-1,-5.420882702E-1,1.360256821E-1,7.493150856E-1
7.901881890E-1,4.728424549E-1,-6.166138053E-1,1.561842114E-1,7.925819074E-1
7.926331890E-1,4.447426796E-1,-6.905283928E-1,1.751210243E-1,8.398171738E-1
7.950773040E-1,4.080907702E-1,-7.540583611E-1,1.928361058E-1,8.788218547E-1
7.975223040E-1,3.647193909E-1,-7.980406284E-1,2.099403143E-1,9.021995424E-1
7.999680330E-1,3.182936609E-1,-8.206425905E-1,2.233793437E-1,9.081098211E-1
8.024129810E-1,2.700353563E-1,-8.236969113E-1,2.288771123E-1,8.965380237E-1
8.048571480E-1,2.211661935E-1,-8.120905161E-1,2.319314480E-1,8.730393393E-1
8.073020950E-1,1.771839410E-1,-7.955971360E-1,2.264336646E-1,8.459557649E-1
8.097478250E-1,1.423646510E-1,-7.729951739E-1,2.148272246E-1,8.148251157E-1
8.121928250E-1,1.124322638E-1,-7.455062270E-1,2.001664788E-1,7.800558747E-1
8.146369390E-1,8.799767494E-2,-7.112978101E-1,1.830622703E-1,7.397296535E-1
8.170819390E-1,7.028260082E-2,-6.709807515E-1,1.616819948E-1,6.937549137E-1
8.195276680E-1,5.928703398E-2,-6.288310885E-1,1.427451968E-1,6.475489800E-1
8.219726160E-1,5.623271316E-2,-5.860705376E-1,1.238083690E-1,6.016388495E-1
8.244167830E-1,6.050876528E-2,-5.396448374E-1,1.073150337E-1,5.535290215E-1
8.268617310E-1,7.394778728E-2,-4.932191372E-1,9.693032503E-2,5.080638547E-1
8.293074600E-1,9.288459271E-2,-4.364087284E-1,9.204341471E-2,4.555788800E-1
8.317524600E-1,1.118214056E-1,-3.514985144E-1,9.204341471E-2,3.801673613E-1
8.341965750E-1,1.338125318E-1,-2.372668087E-1,1.005955189E-1,2.903804240E-1
8.366415750E-1,1.521384865E-1,-8.943753690E-2,1.183106005E-1,2.124678570E-1
8.390873040E-1,1.741296053E-1,8.832409978E-2,1.439669281E-1,2.425875974E-1
8.415322520E-1,1.985642016E-1,2.905203104E-1,1.775644869E-1,3.941559842E-1
8.439764180E-1,2.284965664E-1,5.031012297E-1,2.184924185E-1,5.941889137E-1
8.464213660E-1,2.682027519E-1,7.132387161E-1,2.624746561E-1,8.059374215E-1
8.488670950E-1,3.195154071E-1,9.093263149E-1,3.089003861E-1,1.012118516E0
8.513120950E-1,3.757149577E-1,1.091974854E0,3.608238995E-1,1.209861438E0
8.537562620E-1,4.313036501E-1,1.266071320E0,4.170234501E-1,1.401023905E0
8.562012100E-1,4.789510965E-1,1.430393934E0,4.793316424E-1,1.582775974E0
8.586469390E-1,5.180464387E-1,1.579444885E0,5.495811105E-1,1.750730606E0
8.610918870E-1,5.504222512E-1,1.709559083E0,6.241065860E-1,1.901332676E0
8.635360540E-1,5.711916685E-1,1.819514751E0,7.022972703E-1,2.032268513E0
8.659810020E-1,5.754677057E-1,1.923361778E0,7.835422754E-1,2.155092134E0
8.684267310E-1,5.559200644E-1,2.036982536E0,8.641764522E-1,2.281478887E0
8.708717310E-1,5.162138343E-1,2.153657675E0,9.405345321E-1,2.406101267E0
8.733158980E-1,4.649012089E-1,2.253228664E0,1.016281605E0,2.515154239E0
8.757608450E-1,4.093125165E-1,2.313704252E0,1.083476782E0,2.587409137E0
8.782065750E-1,3.537238240E-1,2.328365088E0,1.145784974E0,2.619012740E0
8.806515230E-1,2.938590944E-1,2.308817387E0,1.197097540E0,2.617256849E0
8.830956890E-1,2.217770666E-1,2.268500328E0,1.236192942E0,2.592961973E0
8.855406370E-1,1.454189718E-1,2.201915979E0,1.265514493E0,2.543837178E0
8.879864180E-1,6.906086951E-2,2.107232094E0,1.287505627E0,2.470398195E0
8.904313660E-1,-1.279500127E-2,2.000330687E0,1.302166343E0,2.386864837E0
8.928755330E-1,-1.019812524E-1,1.897094607E0,1.312551022E0,2.309146663E0
8.953204810E-1,-1.887240261E-1,1.785917163E0,1.318659663E0,2.227999142E0
8.977662100E-1,-2.724125087E-1,1.674128890E0,1.324768305E0,2.152191250E0
9.002111580E-1,-3.640422225E-1,1.589829564E0,1.330876946E0,2.105069649E0
9.026553250E-1,-4.599479735E-1,1.536073446E0,1.336374760E0,2.087335926E0
9.051002730E-1,-5.473016500E-1,1.485371709E0,1.343705177E0,2.076393945E0
9.075460540E-1,-6.175510883E-1,1.423063517E0,1.350424647E0,2.056726974E0
9.099910020E-1,-6.731397510E-1,1.352203250E0,1.359587669E0,2.032252293E0
9.124351680E-1,-7.128459811E-1,1.271569133E0,1.369361401E0,2.000047024E0
9.148801160E-1,-7.372805476E-1,1.172608972E0,1.380967855E0,1.955931140E0
9.173258450E-1,-7.476652861E-1,1.058988094E0,1.391963482E0,1.902109749E0
9.197707930E-1,-7.556065321E-1,9.478107691E-1,1.402958989E0,1.854071307E0
9.222149600E-1,-7.727107406E-1,8.592354059E-1,1.409678578E0,1.822789364E0
9.246599080E-1,-8.105843067E-1,8.018140793E-1,1.409678578E0,1.813048932E0
9.271056890E-1,-8.692273498E-1,7.804338336E-1,1.402348161E0,1.825161231E0
9.295506370E-1,-9.425311089E-1,7.767686248E-1,1.384633064E0,1.846332340E0
9.319948040E-1,-1.019500017E0,7.682165504E-1,1.355311513E0,1.861828738E0
9.344397520E-1,-1.089138627E0,7.358407378E-1,1.314994454E0,1.859272695E0
9.368854810E-1,-1.141672969E0,6.723107696E-1,1.267347097E0,1.833463281E0
9.393304290E-1,-1.171605349E0,5.776267648E-1,1.216034412E0,1.784671248E0
9.417745950E-1,-1.175270557E0,4.609515667E-1,1.166554332E0,1.718890991E0
9.442195430E-1,-1.168551087E0,3.528285027E-1,1.120739460E0,1.657122969E0
9.466653250E-1,-1.155112028E0,2.697508931E-1,1.085309386E0,1.607776665E0
9.491102730E-1,-1.142894745E0,2.129404992E-1,1.059653044E0,1.573027853E0
9.515544390E-1,-1.125179648E0,1.744560152E-1,1.046824932E0,1.546708305E0
9.539993870E-1,-1.113573194E0,1.542974859E-1,1.041937947E0,1.532803855E0
9.564451160E-1,-1.112962365E0,1.604061276E-1,1.044381380E0,1.534649087E0
9.588900640E-1,-1.123957992E0,1.793429404E-1,1.048657417E0,1.547620055E0
9.613342310E-1,-1.137396932E0,1.793429404E-1,1.052322626E0,1.559877745E0
9.637791790E-1,-1.153279424E0,1.536866128E-1,1.051711798E0,1.568365617E0
9.662249600E-1,-1.167329311E0,9.443274140E-2,1.041327119E0,1.567143080E0
9.686699080E-1,-1.178935766E0,4.024764057E-3,1.024833798E0,1.562110769E0
9.711140750E-1,-1.185655236E0,-1.108178049E-1,9.942906499E-1,1.551345487E0
9.735590230E-1,-1.192985654E0,-2.317690253E-1,9.564170241E-1,1.546500946E0
9.760047520E-1,-1.198483467E0,-3.447790146E-1,9.069370031E-1,1.542001919E0
9.784497000E-1,-1.201537728E0,-4.486260116E-1,8.501265645E-1,1.538724597E0
9.808938660E-1,-1.202148676E0,-5.329253078E-1,7.841531634E-1,1.531034620E0
9.833388140E-1,-1.194818258E0,-5.915683508E-1,7.126820087E-1,1.511773604E0
9.857845950E-1,-1.185044408E0,-6.227224469E-1,6.369347572E-1,1.482497683E0
9.882295430E-1,-1.164885879E0,-6.233332753E-1,5.556897521E-1,1.433281055E0
9.906737100E-1,-1.133731723E0,-6.013421416E-1,4.701686800E-1,1.366754762E0
9.931186580E-1,-1.089138627E0,-5.604141951E-1,3.846476078E-1,1.283838308E0
9.955643870E-1,-1.028052211E0,-5.054363608E-1,2.960722148E-1,1.183222726E0
9.980093350E-1,-9.523049593E-1,-4.388521612E-1,2.038316727E-1,1.068186924E0
1.000453502E0,-8.667839170E-1,-3.606614769E-1,1.134236753E-1,9.456510930E-1
1.002898450E0,-7.720998526E-1,-2.720861137E-1,2.607002296E-2,8.190535280E-1
1.005344231E0,-6.725289226E-1,-1.755694598E-1,-5.700757727E-2,6.974020725E-1
1.007789179E0,-5.735688210E-1,-7.477678359E-2,-1.315330714E-1,5.931894374E-1
1.010233345E0,-4.758304656E-1,2.723762579E-2,-1.956738681E-1,5.152133372E-1
1.012678293E0,-3.842007518E-1,1.268085688E-1,-2.500408292E-1,4.756164916E-1
1.015124023E0,-2.968471050E-1,2.153839618E-1,-2.928013802E-1,4.692985222E-1
1.017568970E0,-2.198781371E-1,2.892985642E-1,-3.300641179E-1,4.908995583E-1
1.020013137E0,-1.520721465E-1,3.406112194E-1,-3.606073558E-1,5.188252168E-1
1.022458085E0,-9.342914075E-2,3.699327111E-1,-3.899288476E-1,5.455490090E-1
1.024903866E0,-4.211650789E-2,3.693218529E-1,-4.229155481E-1,5.630541644E-1
1.027348814E0,-3.021165729E-3,3.491633236E-1,-4.595674276E-1,5.771710098E-1
1.029792981E0,2.324601635E-2,3.082353771E-1,-5.041605234E-1,5.913774246E-1
1.032237929E0,4.096109420E-2,2.508141100E-1,-5.554731488E-1,6.108485476E-1
1.034683658E0,4.951319844E-2,1.811755300E-1,-6.141161919E-1,6.421953181E-1
1.037128606E0,4.829147086E-2,1.048174351E-1,-6.794787049E-1,6.892097441E-1
1.039572773E0,3.851763532E-2,2.173984237E-2,-7.521716356E-1,7.534709008E-1
1.042017720E0,2.568947524E-2,-6.561380625E-2,-8.266971111E-1,8.296946633E-1
1.044463502E0,1.225045230E-2,-1.529674679E-1,-9.042769074E-1,9.172054542E-1
1.046908450E0,-3.632030450E-3,-2.378776670E-1,-9.861328006E-1,1.014424406E0
1.049352616E0,-2.134710923E-2,-3.142357767E-1,-1.065545321E0,1.111119549E0
1.051797564E0,-3.845132142E-2,-3.783765733E-1,-1.146179438E0,1.207631831E0
1.054243293E0,-5.189034343E-2,-4.412956238E-1,-1.223148465E0,1.301355679E0
1.056688241E0,-5.433380231E-2,-5.097124577E-1,-1.295841336E0,1.393543584E0
1.059132408E0,-4.455996677E-2,-5.836271048E-1,-1.360592961E0,1.481154750E0
1.061577356E0,-3.051007912E-2,-6.496004462E-1,-1.416181684E0,1.558358805E0
1.064023137E0,-1.218413655E-2,-7.021348476E-1,-1.462607384E0,1.622455595E0
1.066468085E0,1.041785814E-2,-7.393975854E-1,-1.499870181E0,1.672252338E0
1.068912252E0,4.157195985E-2,-7.644430399E-1,-1.530413389E0,1.711217850E0
1.071357200E0,7.394778728E-2,-7.736060023E-1,-1.553015351E0,1.736603352E0
1.073802929E0,1.105996743E-1,-7.619996071E-1,-1.570119619E0,1.748757075E0
1.076247877E0,1.496950239E-1,-7.332889438E-1,-1.583558559E0,1.751507632E0
1.078692043E0,1.918446869E-1,-6.911392808E-1,-1.591499805E0,1.745665925E0
1.081136991E0,2.388812751E-1,-6.386048794E-1,-1.596386790E0,1.735894939E0
1.083582773E0,2.871395648E-1,-5.805727839E-1,-1.599441051E0,1.725608752E0
1.086027720E0,3.408956528E-1,-5.200971365E-1,-1.600051999E0,1.716647103E0
1.088471887E0,3.958734870E-1,-4.583998322E-1,-1.596997619E0,1.707995204E0
1.090916835E0,4.502404630E-1,-4.034220278E-1,-1.592110753E0,1.703021567E0
1.093362564E0,5.015531182E-1,-3.539419770E-1,-1.584169507E0,1.698947757E0
1.095807512E0,5.485896468E-1,-3.124031723E-1,-1.573173881E0,1.695117223E0
1.098251679E0,5.913501978E-1,-2.757512927E-1,-1.559734941E0,1.690711956E0
1.100696627E0,6.231151819E-1,-2.445971817E-1,-1.543852448E0,1.682730131E0
1.103142408E0,6.475497484E-1,-2.201625854E-1,-1.529191613E0,1.675177373E0
1.105587356E0,6.603779197E-1,-2.042801082E-1,-1.513920069E0,1.664266605E0
1.108031523E0,6.634322405E-1,-1.969497353E-1,-1.500481009E0,1.652384579E0
1.110476470E0,6.615996361E-1,-2.024475187E-1,-1.491317987E0,1.643997693E0
1.112922200E0,6.530475616E-1,-2.262712419E-1,-1.483987689E0,1.637036730E0
1.115367200E0,6.414411068E-1,-2.647557259E-1,-1.482155085E0,1.636559190E0
1.117811314E0,6.304455400E-1,-3.270639181E-1,-1.480933309E0,1.642435950E0
1.120256314E0,6.206716895E-1,-4.107523859E-1,-1.481544256E0,1.657988013E0
1.122702043E0,6.090652943E-1,-5.023820400E-1,-1.483987689E0,1.680942506E0
1.125146991E0,5.907393098E-1,-5.903465748E-1,-1.486431122E0,1.704980789E0
1.127591158E0,5.601961017E-1,-6.605960131E-1,-1.489485502E0,1.723013008E0
1.130036106E0,5.211007595E-1,-7.119086981E-1,-1.494983196E0,1.735895951E0
1.132481835E0,4.813945591E-1,-7.522257566E-1,-1.499259233E0,1.745096719E0
1.134926835E0,4.471861124E-1,-7.962080240E-1,-1.502924442E0,1.758608688E0
1.137370950E0,4.166429043E-1,-8.365250826E-1,-1.506589651E0,1.772900984E0
1.139815898E0,3.989278078E-1,-8.792856336E-1,-1.507200480E0,1.789955281E0
1.142261679E0,3.897648454E-1,-9.269330502E-1,-1.505367875E0,1.810318744E0
1.144706627E0,3.952626288E-1,-9.831326008E-1,-1.498648405E0,1.835409845E0
1.147150793E0,4.105342329E-1,-1.036888719E0,-1.490096331E0,1.861199518E0
1.149595741E0,4.245841205E-1,-1.063766718E0,-1.477268100E0,1.869275888E0
1.152041470E0,4.319145083E-1,-1.053992867E0,-1.460774779E0,1.852380647E0
1.154486470E0,4.313036501E-1,-1.004512906E0,-1.443059683E0,1.810384010E0
1.156930585E0,4.288601875E-1,-9.379286170E-1,-1.422901154E0,1.757349949E0
1.159375585E0,4.294710457E-1,-8.670682907E-1,-1.394801378E0,1.697564044E0
1.161821314E0,4.337471128E-1,-7.986514568E-1,-1.361814737E0,1.637229393E0
1.164266262E0,4.386340082E-1,-7.338998318E-1,-1.326384544E0,1.578069934E0
1.166710429E0,4.526838958E-1,-6.844197512E-1,-1.281791449E0,1.521953489E0
1.169155377E0,4.795619547E-1,-6.575416923E-1,-1.234143972E0,1.478327464E0
1.171601158E0,5.162138343E-1,-6.404374838E-1,-1.182220459E0,1.440236823E0
1.174046106E0,5.534765720E-1,-6.153920293E-1,-1.121744871E0,1.394042762E0
1.176490220E0,5.858524442E-1,-5.683554411E-1,-1.059436679E0,1.337406845E0
1.178935220E0,6.157847643E-1,-4.987169206E-1,-9.928523302E-1,1.270301221E0
1.181380950E0,6.487714648E-1,-4.290783405E-1,-9.201593995E-1,1.204867609E0
1.183825898E0,6.823690534E-1,-3.588289022E-1,-8.444122076E-1,1.143423667E0
1.186270064E0,7.031384706E-1,-2.653665841E-1,-7.631671429E-1,1.071096271E0
1.188715012E0,7.123014331E-1,-1.657956243E-1,-6.770352721E-1,9.966134056E-1
1.191160793E0,7.110796571E-1,-6.072689965E-2,-5.915141702E-1,9.269363778E-1
1.193605741E0,7.147448659E-1,3.456799686E-2,-5.084365606E-1,8.778171256E-1
1.196049856E0,7.019166946E-1,9.993052483E-2,-4.259698689E-1,8.271175764E-1
1.198494856E0,7.061927915E-1,1.518540233E-1,-3.435031474E-1,7.998514333E-1
1.200940585E0,6.866450906E-1,1.793429404E-1,-2.640907168E-1,7.572247206E-1
1.203385533E0,6.823690534E-1,1.964471489E-1,-1.797913760E-1,7.324916014E-1
1.205829700E0,6.609888077E-1,1.830081195E-1,-9.182687104E-2,6.919756859E-1
1.208274648E0,6.475497484E-1,1.628495902E-1,-4.473213106E-3,6.677279950E-1
1.210720377E0,6.310564280E-1,1.206999272E-1,8.349131048E-2,6.478977440E-1
1.213165377E0,6.023457646E-1,7.732853293E-2,1.696232408E-1,6.305332394E-1
1.215609543E0,5.773003101E-1,4.006578028E-2,2.551442981E-1,6.324393470E-1
1.218054491E0,5.241550803E-1,1.074427553E-2,3.333349824E-1,6.212617791E-1
1.220500220E0,4.777293503E-1,5.857357290E-3,4.072495997E-1,6.277833044E-1
1.222945168E0,4.007604122E-1,-8.621537127E-4,4.695577919E-1,6.173282525E-1
1.225389335E0,3.408956528E-1,2.192170825E-3,5.220922232E-1,6.235342342E-1
1.227834283E0,2.694244981E-1,-1.796636544E-2,5.593549609E-1,6.211202160E-1
1.230280064E0,2.162792832E-1,-5.034219846E-2,5.831786990E-1,6.240260093E-1
1.232725012E0,1.704644263E-1,-1.108178049E-1,5.953959823E-1,6.291542595E-1
1.235169179E0,1.319799423E-1,-1.822889745E-1,5.978394151E-1,6.387956963E-1
1.237614127E0,1.112105399E-1,-2.531493008E-1,5.941742659E-1,6.553589939E-1
1.240059856E0,8.005643636E-2,-3.136249185E-1,5.856221318E-1,6.691209934E-1
1.242504804E0,7.394778728E-2,-3.411138058E-1,5.795134902E-1,6.765077894E-1
1.244948970E0,4.768060520E-2,-3.460007310E-1,5.703505278E-1,6.687971819E-1
1.247393918E0,4.462628067E-2,-3.050728142E-1,5.660744905E-1,6.445938688E-1
1.249839700E0,2.813293412E-2,-2.421537191E-1,5.593549609E-1,6.101703516E-1
1.252284648E0,2.874379978E-2,-1.431936324E-1,5.563006401E-1,5.751530445E-1
1.254728814E0,3.363071755E-2,-3.568144515E-2,5.526354313E-1,5.548063722E-1
1.257173762E0,4.706974328E-2,7.671767473E-2,5.495811105E-1,5.569026480E-1
1.259619491E0,8.188903332E-2,1.878950447E-1,5.508028269E-1,5.877024040E-1
1.262064439E0,1.105996743E-1,2.850225270E-1,5.508028269E-1,6.299633981E-1
1.264508606E0,1.716861576E-1,3.809282780E-1,5.593549609E-1,6.981836878E-1
1.266953554E0,2.162792832E-1,4.566754997E-1,5.691288114E-1,7.610761094E-1
1.269399335E0,2.828635275E-1,5.507487059E-1,5.880655646E-1,8.539069156E-1
1.271844283E0,3.274566531E-1,6.387132406E-1,6.125001907E-1,9.435777377E-1
1.274288450E0,3.763258159E-1,7.559992671E-1,6.442651749E-1,1.062183424E0
1.276733398E0,4.111451209E-1,8.855025768E-1,6.833604574E-1,1.191694860E0
1.279179127E0,4.349688292E-1,1.038218737E0,7.285645008E-1,1.340858777E0
1.281624075E0,4.587925673E-1,1.200097919E0,7.786554098E-1,1.502341466E0
1.284068241E0,4.642903507E-1,1.350370646E0,8.287463188E-1,1.651026006E0
1.286513189E0,4.838380218E-1,1.467045784E0,8.782263398E-1,1.776964847E0
1.288958970E0,5.101051927E-1,1.548290849E0,9.264846444E-1,1.875042841E0
1.291403918E0,5.302637219E-1,1.592883945E0,9.735212326E-1,1.940670623E0
1.293848085E0,5.479788184E-1,1.620983720E0,1.019335985E0,1.991711539E0
1.296293033E0,5.485896468E-1,1.634422660E0,1.063318253E0,2.025569979E0
1.298738762E0,5.363723636E-1,1.638698816E0,1.101802707E0,2.046215611E0
1.301183710E0,5.131595135E-1,1.633201003E0,1.138454556E0,2.055907824E0
1.303627877E0,4.795619547E-1,1.611820698E0,1.168386936E0,2.047699603E0
1.306072825E0,4.404666126E-1,1.573336244E0,1.195875883E0,2.024726377E0
1.308518606E0,3.879322410E-1,1.537906051E0,1.218477845E0,2.000083674E0
1.310963554E0,3.164610863E-1,1.518358469E0,1.232527733E0,1.981081692E0
1.313407720E0,2.321617603E-1,1.496978164E0,1.237414718E0,1.956026045E0
1.315852668E0,1.496950239E-1,1.458493710E0,1.237414718E0,1.918543115E0
1.318298398E0,7.089346647E-2,1.399850607E0,1.230084300E0,1.864863263E0
1.320743345E0,-8.518948220E-3,1.324103475E0,1.217256188E0,1.798620364E0
1.323187512E0,-8.670963347E-2,1.242858410E0,1.203206301E0,1.732027999E0
1.325632460E0,-1.661220342E-1,1.161613464E0,1.187934637E0,1.669769766E0
1.328078241E0,-2.430909872E-1,1.084644437E0,1.170219541E0,1.613989020E0
1.330523189E0,-3.188382387E-1,1.015616775E0,1.155558825E0,1.571130629E0
1.332967356E0,-3.896985352E-1,9.575846195E-1,1.146395802E0,1.543715190E0
1.335412304E0,-4.562827945E-1,9.111588597E-1,1.139676332E0,1.528812153E0
1.337858033E0,-5.124823451E-1,8.696200848E-1,1.138454556E0,1.521497954E0
1.340302981E0,-5.619623661E-1,8.341899514E-1,1.140287161E0,1.520503004E0
1.342747148E0,-5.967816710E-1,7.932620049E-1,1.147006750E0,1.516917089E0
1.345192095E0,-6.230488420E-1,7.505014539E-1,1.159834862E0,1.515473259E0
1.347637877E0,-6.462617517E-1,7.199582458E-1,1.176328182E0,1.523069965E0
1.350082825E0,-6.700854301E-1,6.930801868E-1,1.190988898E0,1.532262766E0
1.352526991E0,-6.896331310E-1,6.631478071E-1,1.203817129E0,1.537704312E0
1.354971939E0,-7.067373395E-1,6.258850694E-1,1.213590980E0,1.537534667E0
1.357417668E0,-7.207872272E-1,5.764050484E-1,1.221532226E0,1.530985952E0
1.359862616E0,-7.323936224E-1,5.116533637E-1,1.225197434E0,1.516343739E0
1.362306783E0,-7.452217937E-1,4.432364702E-1,1.224586487E0,1.500475309E0
1.364751731E0,-7.604933977E-1,3.760413527E-1,1.217256188E0,1.483735130E0
1.367197512E0,-7.849280238E-1,3.198418021E-1,1.201984525E0,1.470774483E0
1.369642460E0,-8.173038363E-1,2.801356018E-1,1.176328182E0,1.459523727E0
1.372086627E0,-8.631187081E-1,2.618096471E-1,1.140287161E0,1.453882046E0
1.374531575E0,-9.107661247E-1,2.538684309E-1,1.097526670E0,1.448623106E0
1.376977304E0,-9.565809965E-1,2.477597743E-1,1.046213984E0,1.439095483E0
1.379422252E0,-9.944546223E-1,2.398185581E-1,9.942906499E-1,1.426557687E0
1.381866418E0,-1.017667532E0,2.288229913E-1,9.423671365E-1,1.405725075E0
1.384311366E0,-1.021943569E0,2.086644471E-1,8.983848691E-1,1.376591763E0
1.386757148E0,-1.001174092E0,1.775103360E-1,8.623438478E-1,1.333227810E0
1.389202095E0,-9.584136009E-1,1.335280836E-1,8.427962065E-1,1.283234906E0
1.391646262E0,-8.936619163E-1,8.282631636E-2,8.403527141E-1,1.229505796E0
1.394091210E0,-8.197473288E-1,3.701145947E-2,8.556243181E-1,1.185516134E0
1.396536939E0,-7.525522113E-1,1.746379025E-2,8.934979439E-1,1.168322896E0
1.398981887E0,-7.079590559E-1,4.861788452E-2,9.484757781E-1,1.184557312E0
1.401426054E0,-6.932982802E-1,1.182564646E-1,1.012616396E0,1.232898642E0
1.403871002E0,-6.951308846E-1,1.940036863E-1,1.076146364E0,1.295737386E0
1.406316783E0,-7.036830187E-1,2.318773121E-1,1.131735086E0,1.352686654E0
1.408761731E0,-7.091807723E-1,2.166056782E-1,1.171441317E0,1.386409083E0
1.411205898E0,-7.134568691E-1,1.463562399E-1,1.192210674E0,1.397070916E0
1.413650845E0,-7.159003019E-1,2.357243560E-2,1.189767241E0,1.388745834E0
1.416096575E0,-7.189546227E-1,-1.260894239E-1,1.167776108E0,1.377133011E0
1.418541575E0,-7.305610776E-1,-2.720861137E-1,1.126848102E0,1.370232457E0
1.420985689E0,-7.501087189E-1,-3.997568190E-1,1.068205118E0,1.365112002E0
1.423430689E0,-7.733215690E-1,-5.078798532E-1,9.924580455E-1,1.356812871E0
1.425876418E0,-7.928692698E-1,-6.013421416E-1,9.026609063E-1,1.343521776E0
1.428321366E0,-8.014213443E-1,-6.789219975E-1,8.024790883E-1,1.321810855E0
1.430765533E0,-8.014213443E-1,-7.332889438E-1,6.931343079E-1,1.288574412E0
1.433210481E0,-7.898149490E-1,-7.638321519E-1,5.801243782E-1,1.242494066E0
1.435656210E0,-7.672129273E-1,-7.619996071E-1,4.665034711E-1,1.177660633E0
1.438101158E0,-7.336153984E-1,-7.296237350E-1,3.559369743E-1,1.094181647E0
1.440545325E0,-6.847462058E-1,-6.691481471E-1,2.484247833E-1,9.891165159E-1
1.442990325E0,-6.230488420E-1,-5.824053288E-1,1.476321071E-1,8.655524626E-1
1.445436054E0,-5.491342545E-1,-4.742823243E-1,5.233720690E-2,7.274828766E-1
1.447881002E0,-4.642240405E-1,-3.490550518E-1,-3.012952954E-2,5.815936533E-1
1.450325168E0,-3.738160729E-1,-2.140539438E-1,-1.040441692E-1,4.431509183E-1
1.452770116E0,-2.772994339E-1,-7.477678359E-2,-1.620763093E-1,3.297806445E-1
1.455215845E0,-1.826153845E-1,6.572210789E-2,-2.115563452E-1,2.870955613E-1
1.457660845E0,-9.037481993E-2,1.952254176E-1,-2.518734336E-1,3.312412992E-1
1.460104960E0,-3.021165729E-3,3.033484519E-1,-2.799732089E-1,4.128128007E-1
1.462549960E0,7.333692163E-2,3.876477778E-1,-3.019643426E-1,4.968214648E-1
1.464995689E0,1.350342631E-1,4.462908208E-1,-3.196794093E-1,5.653358946E-1
1.467440637E0,1.802382618E-1,4.798883498E-1,-3.325075805E-1,6.110155075E-1
1.469884804E0,2.089488953E-1,4.902730882E-1,-3.490009308E-1,6.370470874E-1
1.472329752E0,2.162792832E-1,4.737797081E-1,-3.691594601E-1,6.383750051E-1
1.474775481E0,2.077271640E-1,4.297974706E-1,-3.917614520E-1,6.175382382E-1
1.477220481E0,1.924555451E-1,3.601588905E-1,-4.241372943E-1,5.887665137E-1
1.479664648E0,1.686318219E-1,2.611987889E-1,-4.620108902E-1,5.568802038E-1
1.482109595E0,1.411429197E-1,1.384149939E-1,-5.059931278E-1,5.432394313E-1
1.484555325E0,1.173191816E-1,-2.512880601E-4,-5.536405444E-1,5.659343654E-1
1.487000273E0,9.838237613E-2,-1.505240053E-1,-6.000663042E-1,6.264312712E-1
1.489444439E0,8.249989897E-2,-2.983532846E-1,-6.422159672E-1,7.129251463E-1
1.491889387E0,6.600654870E-2,-4.266348779E-1,-6.788678169E-1,8.045095999E-1
1.494335168E0,5.256752297E-2,-5.249840617E-1,-7.130762935E-1,8.870453257E-1
1.496780116E0,3.973936290E-2,-5.915683508E-1,-7.472847104E-1,9.539217835E-1
1.499224231E0,2.935466543E-2,-6.337180138E-1,-7.821039557E-1,1.007048566E0
1.501669231E0,2.630034089E-2,-6.581525803E-1,-8.218101859E-1,1.053199178E0
1.504114960E0,3.485244513E-2,-6.740350723E-1,-8.633489609E-1,1.095860119E0
1.506559908E0,5.501098186E-2,-6.856414676E-1,-9.048877954E-1,1.136640819E0
1.509004075E0,8.127816767E-2,-6.886957884E-1,-9.452048540E-1,1.172314056E0
1.511449023E0,1.142648607E-1,-6.807546020E-1,-9.818567634E-1,1.200219143E0
1.513894804E0,1.564145386E-1,-6.605960131E-1,-1.012400150E0,1.218936694E0
1.516339752E0,2.016185224E-1,-6.306636930E-1,-1.037445545E0,1.230723357E0
1.518783866E0,2.486551106E-1,-5.915683508E-1,-1.057604074E0,1.237056529E0
1.521228866E0,2.999677360E-1,-5.408665538E-1,-1.073486567E0,1.238907051E0
1.523674595E0,3.488368988E-1,-4.828344285E-1,-1.089369059E0,1.241588182E0
1.526119543E0,3.964843452E-1,-4.174719155E-1,-1.100975513E0,1.242428959E0
1.528563710E0,4.392448962E-1,-3.502767980E-1,-1.114414454E0,1.248018224E0
1.531008658E0,4.758967757E-1,-2.824707925E-1,-1.127853513E0,1.256312475E0
1.533454387E0,5.094943047E-1,-2.201625854E-1,-1.142514229E0,1.270194778E0
1.535899387E0,5.363723636E-1,-1.694608182E-1,-1.158396721E0,1.287748129E0
1.538343554E0,5.626395345E-1,-1.346415281E-1,-1.172446609E0,1.307410661E0
1.540788502E0,5.840198398E-1,-1.157047153E-1,-1.184663892E0,1.325856437E0
1.543234231E0,6.005131602E-1,-1.126503944E-1,-1.196270347E0,1.343267996E0
1.545679179E0,6.133413315E-1,-1.224242300E-1,-1.206044197E0,1.358572003E0
1.548123345E0,6.218934655E-1,-1.493022740E-1,-1.213374615E0,1.371612411E0
1.550568293E0,6.231151819E-1,-1.841215640E-1,-1.218872428E0,1.381239760E0
1.553014075E0,6.170065403E-1,-2.244386375E-1,-1.220704913E0,1.386070077E0
1.555459023E0,6.054000854E-1,-2.733078301E-1,-1.221315861E0,1.390258561E0
1.557903189E0,5.944045186E-1,-3.350051641E-1,-1.217650652E0,1.395785908E0
1.560348137E0,5.846306682E-1,-4.119741321E-1,-1.209709406E0,1.405315819E0
1.562793866E0,5.766894221E-1,-4.956625998E-1,-1.197492123E0,1.418534274E0
1.565238814E0,5.675264597E-1,-5.726315379E-1,-1.179777026E0,1.428939114E0
1.567682981E0,5.522548556E-1,-6.337180138E-1,-1.162672877E0,1.434709785E0
1.570127929E0,5.308746099E-1,-6.783111095E-1,-1.143736005E0,1.431805106E0
1.572573710E0,5.107160807E-1,-7.119086981E-1,-1.126631856E0,1.427215558E0
1.575018658E0,4.905575216E-1,-7.412301898E-1,-1.114414454E0,1.425478323E0
1.577462825E0,4.765076339E-1,-7.748277187E-1,-1.105862379E0,1.431904019E0
1.579907773E0,4.649012089E-1,-8.084253073E-1,-1.099753737E0,1.441923332E0
1.582353502E0,4.606251419E-1,-8.475206494E-1,-1.096699476E0,1.460553496E0
1.584798450E0,4.606251419E-1,-8.939463496E-1,-1.093034267E0,1.485274219E0
1.587242616E0,4.667337835E-1,-9.452589750E-1,-1.091201663E0,1.517259379E0
1.589687564E0,4.752859175E-1,-9.947390556E-1,-1.089979887E0,1.550309210E0
1.592133345E0,4.826162755E-1,-1.033223510E0,-1.089979887E0,1.577506084E0
1.594578293E0,4.868923426E-1,-1.057658076E0,-1.094255924E0,1.597842541E0
1.597022460E0,4.820054173E-1,-1.052771211E0,-1.100364566E0,1.597328589E0
1.599467408E0,4.703989923E-1,-1.024671435E0,-1.104029775E0,1.578007765E0
1.601913137E0,4.581816792E-1,-9.855760932E-1,-1.105862379E0,1.550555477E0
1.604358085E0,4.477970004E-1,-9.440372586E-1,-1.104029775E0,1.520069157E0
1.606802252E0,4.398557544E-1,-9.055528045E-1,-1.097921133E0,1.489607257E0
1.609247200E0,4.392448962E-1,-8.756204247E-1,-1.078373432E0,1.456892744E0
1.611692981E0,4.496295750E-1,-8.597379327E-1,-1.050273657E0,1.429821955E0
1.614137929E0,4.746750295E-1,-8.566836119E-1,-1.013621807E0,1.409486560E0
1.616582095E0,5.033856630E-1,-8.530184031E-1,-9.720829129E-1,1.387797792E0
1.619027043E0,5.357615352E-1,-8.401902914E-1,-9.244354367E-1,1.359242813E0
1.621472773E0,5.650830269E-1,-8.047600985E-1,-8.780097365E-1,1.318278704E0
1.623917720E0,5.870741606E-1,-7.400084734E-1,-8.334166408E-1,1.259703103E0
1.626361887E0,5.999023318E-1,-6.581525803E-1,-7.851582766E-1,1.187232558E0
1.628806835E0,6.194499731E-1,-5.885140300E-1,-7.381217480E-1,1.129110600E0
1.631252616E0,6.359433532E-1,-5.213188529E-1,-6.855873466E-1,1.070620056E0
1.633697564E0,6.408302188E-1,-4.492368698E-1,-6.318312287E-1,1.005826941E0
1.636141731E0,6.347215772E-1,-3.765439689E-1,-5.762425661E-1,9.363291815E-1
1.638586679E0,6.237260103E-1,-3.166792393E-1,-5.145452023E-1,8.683758643E-1
1.641032408E0,6.115087271E-1,-2.763621509E-1,-4.522370696E-1,8.092201980E-1
1.643477356E0,5.937936306E-1,-2.507058382E-1,-3.911505938E-1,7.539516430E-1
1.645921523E0,5.730242729E-1,-2.421537191E-1,-3.312858343E-1,7.048017771E-1
1.648366470E0,5.479788184E-1,-2.464297712E-1,-2.720319629E-1,6.595527321E-1
1.650812252E0,5.192681551E-1,-2.702535093E-1,-2.164432555E-1,6.241186258E-1
1.653257200E0,4.893358052E-1,-3.136249185E-1,-1.620763093E-1,6.033894677E-1
1.655701366E0,4.587925673E-1,-3.771548271E-1,-1.125962734E-1,6.044950820E-1
1.658146314E0,4.215297997E-1,-4.590107203E-1,-6.800314784E-2,6.268992275E-1
1.660592043E0,3.781584203E-1,-5.457534790E-1,-2.829693630E-2,6.645685573E-1
1.663036991E0,3.256240487E-1,-6.300528049E-1,4.689758178E-3,7.092387130E-1
1.665481158E0,2.639267147E-1,-7.094652057E-1,3.278953582E-2,7.576762781E-1
1.667926106E0,1.942881495E-1,-7.797146440E-1,5.233720690E-2,8.052589610E-1
1.670371887E0,1.215952411E-1,-8.450771570E-1,6.272190809E-2,8.560810953E-1
1.672816835E0,5.378925428E-2,-9.141048789E-1,6.272190809E-2,9.178317118E-1
1.675261002E0,-7.297218777E-3,-9.892412424E-1,5.111547932E-2,9.905878443E-1
1.677705950E0,-5.555552989E-2,-1.070486307E0,3.095694073E-2,1.072373854E0
1.680151679E0,-9.342914075E-2,-1.149898648E0,6.522352342E-3,1.153706395E0
1.682596627E0,-1.215289235E-1,-1.213428617E0,-2.646434307E-2,1.219786312E0
1.685040793E0,-1.429091841E-1,-1.256800056E0,-5.761844292E-2,1.266210606E0
1.687485741E0,-1.606242508E-1,-1.271460772E0,-8.755081892E-2,1.284553537E0
1.689931523E0,-1.710089594E-1,-1.258632660E0,-1.113745421E-1,1.275070400E0
1.692376470E0,-1.746741384E-1,-1.210985184E0,-1.358091235E-1,1.231032204E0
1.694820637E0,-1.722306907E-1,-1.136459708E0,-1.529133320E-1,1.159563093E0
1.697265585E0,-1.630677134E-1,-1.035056114E0,-1.657414883E-1,1.060849886E0
1.699711314E0,-1.465743631E-1,-9.104397297E-1,-1.761261970E-1,9.388317115E-1
1.702156262E0,-1.251941025E-1,-7.650539279E-1,-1.791805178E-1,7.956674769E-1
1.704600429E0,-9.404000640E-2,-6.166138053E-1,-1.804022491E-1,6.493081542E-1
1.707045377E0,-4.944688454E-2,-4.706171453E-1,-1.773479134E-1,5.053491607E-1
1.709491158E0,6.141805090E-3,-3.288965225E-1,-1.675740778E-1,3.691770793E-1
1.711936106E0,6.417395175E-2,-1.914519519E-1,-1.523024589E-1,2.529193250E-1
1.714380273E0,1.283147633E-1,-5.034219846E-2,-1.309221983E-1,1.901042804E-1
1.716825220E0,1.918446869E-1,9.504359961E-2,-1.028224379E-1,2.375081545E-1
1.719270950E0,2.498768270E-1,2.502032220E-1,-6.617055833E-2,3.597480004E-1
1.721715898E0,3.005785942E-1,4.212453663E-1,-1.974483021E-2,5.178658207E-1
1.724160064E0,3.433391154E-1,6.118351817E-1,3.401126713E-2,7.024107089E-1
1.726605012E0,3.751040995E-1,8.170857430E-1,9.631946683E-2,9.042176931E-1
1.729050793E0,4.050364494E-1,1.025390625E0,1.629037261E-1,1.114458650E0
1.731495741E0,4.349688292E-1,1.214758635E0,2.343748957E-1,1.311399258E0
1.733939908E0,4.661229253E-1,1.373583436E0,3.082895279E-1,1.482917553E0
1.736384856E0,5.015531182E-1,1.500032425E0,3.785389662E-1,1.626328551E0
1.738830585E0,5.314854383E-1,1.599603415E0,4.500101209E-1,1.744625164E0
1.741275533E0,5.553091764E-1,1.680237532E0,5.202596188E-1,1.844515252E0
1.743719700E0,5.632504225E-1,1.747432709E0,5.923416615E-1,1.929155451E0
1.746164648E0,5.595852137E-1,1.807297468E0,6.595367789E-1,2.003608872E0
1.748610429E0,5.430918932E-1,1.857999206E0,7.261210084E-1,2.067452919E0
1.751055377E0,5.107160807E-1,1.905646682E0,7.884292006E-1,2.124603680E0
1.753499543E0,4.673446715E-1,1.944131136E0,8.476830721E-1,2.171778881E0
1.755944491E0,4.160320163E-1,1.965511441E0,9.014391899E-1,2.202024177E0
1.758390220E0,3.579998910E-1,1.965511441E0,9.466431737E-1,2.210776435E0
1.760835168E0,2.969134152E-1,1.936800718E0,9.851276875E-1,2.193132727E0
1.763279335E0,2.321617603E-1,1.883044720E0,1.016892552E0,2.152632566E0
1.765724283E0,1.606905907E-1,1.809130073E0,1.038883686E0,2.092379602E0
1.768170064E0,8.127816767E-2,1.723608971E0,1.051711798E0,2.020775032E0
1.770615012E0,-5.464624614E-3,1.628924966E0,1.058431268E0,1.942602161E0
1.773059179E0,-9.281828254E-2,1.522023559E0,1.059042215E0,1.856540159E0
1.775504127E0,-1.771176010E-1,1.407181025E0,1.056598663E0,1.768595436E0
1.777949856E0,-2.595843673E-1,1.290505886E0,1.048046589E0,1.682614376E0
1.780394856E0,-3.377750516E-1,1.182382822E0,1.039494514E0,1.610176999E0
1.782838970E0,-4.135222733E-1,1.095029116E0,1.032164097E0,1.560593527E0
1.785283918E0,-4.862151742E-1,1.032720923E0,1.024833798E0,1.534014999E0
1.787729700E0,-5.540211797E-1,9.966799021E-1,1.018114209E0,1.528681405E0
1.790174648E0,-6.071664095E-1,9.716345072E-1,1.015670776E0,1.531114558E0
1.792618814E0,-6.419856548E-1,9.508650899E-1,1.018725157E0,1.534304711E0
1.795063762E0,-6.566464305E-1,9.331499934E-1,1.027888060E0,1.535743243E0
1.797509491E0,-6.487051845E-1,9.050502181E-1,1.044381380E0,1.526652148E0
1.799954491E0,-6.230488420E-1,8.745070100E-1,1.069426894E0,1.515462389E0
1.802398606E0,-5.973925591E-1,8.616788387E-1,1.103024483E0,1.521851274E0
1.804843606E0,-5.686818957E-1,8.506832719E-1,1.135400295E0,1.528461631E0
1.807289335E0,-5.430256128E-1,8.445746303E-1,1.172662973E0,1.543801014E0
1.809734283E0,-5.369169116E-1,8.616788387E-1,1.203817129E0,1.574784389E0
1.812178450E0,-5.601298213E-1,9.154349566E-1,1.227029920E0,1.630143859E0
1.814623398E0,-6.102207303E-1,9.997343421E-1,1.236192942E0,1.702941891E0
1.817069127E0,-6.829136014E-1,1.091974854E0,1.228251696E0,1.779714106E0
1.819514075E0,-7.623260021E-1,1.168332934E0,1.200762749E0,1.840644984E0
1.821958241E0,-8.282994032E-1,1.204373956E0,1.158613086E0,1.865202619E0
1.824403189E0,-8.790012002E-1,1.195210934E0,1.103635311E0,1.849103346E0
1.826848970E0,-9.083226919E-1,1.149396181E0,1.045603156E0,1.799846564E0
1.829293918E0,-9.125987291E-1,1.071205497E0,9.918471575E-1,1.721649918E0
1.831738085E0,-8.881641626E-1,9.716345072E-1,9.484757781E-1,1.622502850E0
1.834183033E0,-8.447927833E-1,8.635114431E-1,9.277063608E-1,1.523143444E0
1.836628762E0,-7.904257774E-1,7.718817592E-1,9.325932860E-1,1.445788573E0
1.839073710E0,-7.378914356E-1,7.132387161E-1,9.625256658E-1,1.406999962E0
1.841517877E0,-6.951308846E-1,7.016322613E-1,1.019335985E0,1.419345140E0
1.843962877E0,-6.786375642E-1,7.443928123E-1,1.098137498E0,1.490159578E0
1.846408606E0,-6.792483926E-1,8.262487054E-1,1.192210674E0,1.601696474E0
1.848853554E0,-6.926874518E-1,9.160457850E-1,1.293003321E0,1.729396824E0
1.851297720E0,-7.097916603E-1,9.807974100E-1,1.390741706E0,1.843889979E0
1.853742668E0,-7.140676975E-1,9.838517904E-1,1.478706241E0,1.914269879E0
1.856188398E0,-7.024613023E-1,9.087154269E-1,1.547123075E0,1.926864141E0
1.858633398E0,-6.743615270E-1,7.596644163E-1,1.591105342E0,1.887715472E0
1.861077512E0,-6.340444088E-1,5.391422510E-1,1.611263871E0,1.813520869E0
1.863522512E0,-5.980033875E-1,2.868551016E-1,1.604544401E0,1.736219063E0
1.865968241E0,-6.010577083E-1,8.649151027E-2,1.575222850E0,1.688217455E0
1.868413189E0,-6.627550721E-1,-1.735549979E-2,1.518412471E0,1.656840949E0
1.870857356E0,-7.421674728E-1,-9.493531287E-2,1.431058764E0,1.614854315E0
1.873302304E0,-8.063082695E-1,-1.969497353E-1,1.314383626E0,1.554518105E0
1.875748033E0,-8.539557457E-1,-3.136249185E-1,1.171441317E0,1.483197817E0
1.878193033E0,-8.820555210E-1,-4.248022735E-1,1.008340359E0,1.405428473E0
1.880637148E0,-8.912184834E-1,-5.097124577E-1,8.342440724E-1,1.322890905E0
1.883082148E0,-8.832772374E-1,-5.488077998E-1,6.570932865E-1,1.230097665E0
1.885527877E0,-8.576208949E-1,-5.286492705E-1,4.811642468E-1,1.116468846E0
1.887972825E0,-8.191364408E-1,-4.547346532E-1,3.150090277E-1,9.884324969E-1
1.890416991E0,-7.617151737E-1,-3.362269104E-1,1.653471887E-1,8.488805770E-1
1.892861939E0,-6.896331310E-1,-1.896193475E-1,3.278953582E-2,7.159780066E-1
1.895307668E0,-6.016685963E-1,-3.079452552E-2,-7.838784158E-2,6.075344075E-1
1.897752668E0,-5.008759499E-1,1.280303001E-1,-1.663523614E-1,5.430852447E-1
1.900196783E0,-3.970289230E-1,2.795247436E-1,-2.323257476E-1,5.382762311E-1
1.902641783E0,-2.931819260E-1,4.163584411E-1,-2.750862837E-1,5.787766898E-1
1.905087512E0,-1.923892200E-1,5.293684602E-1,-2.952448130E-1,6.359355928E-1
1.907532460E0,-1.025921181E-1,6.148895025E-1,-2.982991636E-1,6.910836664E-1
1.909976627E0,-2.501229569E-2,6.680347323E-1,-2.860818505E-1,7.271443074E-1
1.912421575E0,3.363071755E-2,6.936910748E-1,-2.634798586E-1,7.428054714E-1
1.914867304E0,7.761297375E-2,6.930801868E-1,-2.347692102E-1,7.358671763E-1
1.917312304E0,1.020475700E-1,6.680347323E-1,-2.078911513E-1,7.070380760E-1
1.919756418E0,1.136539951E-1,6.173329353E-1,-1.852891594E-1,6.544839618E-1
1.922201418E0,1.154865921E-1,5.428074598E-1,-1.724610031E-1,5.811367214E-1
1.924647148E0,1.057127565E-1,4.511777163E-1,-1.718501300E-1,4.942357592E-1
1.927092095E0,8.983027190E-2,3.491633236E-1,-1.846783012E-1,4.050809540E-1
1.929536262E0,6.783913821E-2,2.410402745E-1,-2.097237557E-1,3.266291725E-1
1.931981210E0,4.401541874E-2,1.335280836E-1,-2.494299561E-1,2.863257047E-1
1.934426939E0,2.080255747E-2,2.601589449E-2,-3.007425964E-1,3.025816955E-1
1.936871939E0,6.440225989E-4,-7.477678359E-2,-3.563312888E-1,3.640933528E-1
1.939316054E0,-1.462759450E-2,-1.664064974E-1,-4.204720855E-1,4.524399005E-1
1.941761054E0,-2.379056811E-2,-2.439863086E-1,-4.852237403E-1,5.436335053E-1
1.944206783E0,-2.989921346E-2,-3.032402098E-1,-5.487536788E-1,6.276776146E-1
1.946651731E0,-3.478613123E-2,-3.398920894E-1,-6.122835875E-1,7.011618207E-1
1.949095898E0,-3.051007912E-2,-3.698244691E-1,-6.764243841E-1,7.715250808E-1
1.951540845E0,-1.279500127E-2,-4.089198112E-1,-7.368999720E-1,8.428527112E-1
1.953986627E0,1.835909858E-2,-4.522911906E-1,-7.930995226E-1,9.131874016E-1
1.956431575E0,4.706974328E-2,-4.803909659E-1,-8.450230360E-1,9.731674945E-1
1.958875689E0,7.455865294E-2,-4.938299954E-1,-8.920596242E-1,1.022348977E0
1.961320689E0,1.002149731E-1,-4.962734580E-1,-9.335984588E-1,1.062043534E0
1.963766418E0,1.289256215E-1,-4.956625998E-1,-9.720829129E-1,1.098748569E0
1.966211366E0,1.613014489E-1,-4.877213538E-1,-1.003237128E0,1.127109139E0
1.968655533E0,1.918446869E-1,-4.687845409E-1,-1.026450038E0,1.144623523E0
1.971100481E0,2.284965664E-1,-4.443499446E-1,-1.041721582E0,1.155353370E0
1.973546210E0,2.700353563E-1,-4.180827737E-1,-1.044775963E0,1.157267952E0
1.975991210E0,3.109633029E-1,-3.789874315E-1,-1.045997620E0,1.155179929E0
1.978435325E0,3.512803614E-1,-3.288965225E-1,-1.042943358E0,1.148608577E0
1.980880325E0,3.903757036E-1,-2.769730091E-1,-1.033780336E0,1.139214212E0
1.983326054E0,4.282493293E-1,-2.299364209E-1,-1.024006486E0,1.133515562E0
1.985771002E0,4.655120671E-1,-1.957280040E-1,-1.013010979E0,1.131902018E0
1.988215168E0,5.003313422E-1,-1.755694598E-1,-1.004458904E0,1.135822952E0
1.990660116E0,5.296528339E-1,-1.682390869E-1,-9.971284270E-1,1.141534763E0
1.993105898E0,5.528657436E-1,-1.670173556E-1,-9.940740466E-1,1.149668882E0
1.995550845E0,5.638613105E-1,-1.694608182E-1,-9.916305542E-1,1.153250928E0
1.997995012E0,5.675264597E-1,-1.725151390E-1,-9.922414422E-1,1.156023717E0
2.000439960E0,5.638613105E-1,-1.774020642E-1,-9.934631586E-1,1.156019082E0
2.002885689E0,5.540874600E-1,-1.877867579E-1,-9.922414422E-1,1.151876669E0
2.005330637E0,5.412592888E-1,-2.048909664E-1,-9.922414422E-1,1.148688385E0
2.007774804E0,5.320963264E-1,-2.360450774E-1,-9.897980094E-1,1.148278659E0
2.010219752E0,5.223224759E-1,-2.751404345E-1,-9.867436886E-1,1.149863529E0
2.012665533E0,5.137704015E-1,-3.227878809E-1,-9.806349874E-1,1.153168253E0
2.015110481E0,5.052182674E-1,-3.771548271E-1,-9.733046293E-1,1.159660796E0
2.017554648E0,4.997205138E-1,-4.400739074E-1,-9.586439133E-1,1.167211972E0
2.019999595E0,4.936118424E-1,-5.029929280E-1,-9.384853244E-1,1.173630794E0
2.022445325E0,4.881140590E-1,-5.591924787E-1,-9.158833623E-1,1.178895201E0
2.024890273E0,4.795619547E-1,-6.056182384E-1,-8.877835870E-1,1.176823188E0
2.027334439E0,4.642903507E-1,-6.416592598E-1,-8.590729237E-1,1.168459851E0
2.029779387E0,4.465752542E-1,-6.636503339E-1,-8.328057528E-1,1.154740943E0
2.032225168E0,4.300819039E-1,-6.795328259E-1,-8.083711863E-1,1.140262812E0
2.034670116E0,4.135885537E-1,-6.978588104E-1,-7.888234854E-1,1.131505591E0
2.037114283E0,4.019821286E-1,-7.265694141E-1,-7.723301649E-1,1.134013505E0
2.039559231E0,3.952626288E-1,-7.699408531E-1,-7.570585012E-1,1.149860443E0
2.042004960E0,3.958734870E-1,-8.285838366E-1,-7.442303896E-1,1.182009249E0
2.044449908E0,4.019821286E-1,-8.927246332E-1,-7.332348228E-1,1.223184454E0
2.046894075E0,4.062581956E-1,-9.574763179E-1,-7.210174799E-1,1.265572134E0
2.049339023E0,4.099233747E-1,-1.020395398E0,-7.124654055E-1,1.310286570E0
2.051784804E0,4.117559791E-1,-1.067431927E0,-7.026915550E-1,1.342657561E0
2.054229752E0,4.007604122E-1,-1.086368799E0,-6.935285926E-1,1.349736265E0
2.056673918E0,3.806018829E-1,-1.079038382E0,-6.855873466E-1,1.333870920E0
2.059118866E0,3.604433239E-1,-1.062545061E0,-6.788678169E-1,1.311404937E0
2.061564595E0,3.396739364E-1,-1.042997360E0,-6.703157425E-1,1.285513544E0
2.064009543E0,3.250131905E-1,-1.027725816E0,-6.593201756E-1,1.263549374E0
2.066453710E0,3.189045489E-1,-1.023449659E0,-6.422159672E-1,1.249636213E0
2.068898658E0,3.274566531E-1,-1.035056114E0,-6.190031171E-1,1.249693514E0
2.071344439E0,3.457825780E-1,-1.050938606E0,-5.884598494E-1,1.253125109E0
2.073789387E0,3.696063161E-1,-1.063766718E0,-5.518079996E-1,1.254073573E0
2.076233554E0,3.983169496E-1,-1.066210270E0,-5.114908814E-1,1.247831581E0
2.078678502E0,4.233624041E-1,-1.046662569E0,-4.742282033E-1,1.224594075E0
2.081124231E0,4.392448962E-1,-1.003291130E0,-4.387980402E-1,1.179861386E0
2.083569179E0,4.526838958E-1,-9.635849595E-1,-4.082548022E-1,1.140215185E0
2.086013345E0,4.703989923E-1,-9.403721094E-1,-3.813767433E-1,1.118491456E0
2.088458293E0,4.813945591E-1,-9.226570129E-1,-3.551095724E-1,1.099608791E0
2.090904075E0,4.765076339E-1,-8.945572376E-1,-3.325075805E-1,1.066702146E0
2.093349023E0,4.569599628E-1,-8.646248579E-1,-3.117381632E-1,1.026435207E0
2.095793189E0,4.288601875E-1,-8.487423658E-1,-2.940230966E-1,9.953563409E-1
2.098238137E0,3.995386660E-1,-8.615705371E-1,-2.769188881E-1,9.892517408E-1
2.100683866E0,3.689954281E-1,-9.012767673E-1,-2.640907168E-1,1.009059633E0
2.103128814E0,3.353978693E-1,-9.556437135E-1,-2.549277544E-1,1.044382496E0
2.105572981E0,2.987459898E-1,-1.018562794E0,-2.457647771E-1,1.089550208E0
2.108017929E0,2.596506476E-1,-1.088812232E0,-2.341583371E-1,1.143573637E0
2.110463710E0,2.236096561E-1,-1.161505103E0,-2.213301808E-1,1.203362968E0
2.112908658E0,1.894012243E-1,-1.233587146E0,-2.085020244E-1,1.265339150E0
2.115352825E0,1.515276134E-1,-1.295284510E0,-1.926195323E-1,1.318265854E0
2.117797773E0,1.099888086E-1,-1.338045001E0,-1.767370552E-1,1.354141038E0
2.120243502E0,6.539568305E-2,-1.361868739E0,-1.590219736E-1,1.372680242E0
2.122688450E0,1.835909858E-2,-1.370420814E0,-1.406960338E-1,1.377746579E0
2.125132616E0,-2.806662023E-2,-1.366144776E0,-1.223700941E-1,1.371901500E0
2.127577564E0,-6.960541755E-2,-1.352705717E0,-1.077093482E-1,1.358771127E0
2.130023345E0,-1.044247076E-1,-1.335601568E0,-9.365946054E-2,1.342947565E0
2.132468293E0,-1.300810128E-1,-1.312388659E0,-7.960957289E-2,1.321220173E0
2.134912460E0,-1.453526318E-1,-1.284899831E0,-6.861400604E-2,1.294914223E0
2.137357408E0,-1.532938778E-1,-1.247026205E0,-6.006190553E-2,1.257847686E0
2.139803137E0,-1.557373405E-1,-1.186550617E0,-5.273152515E-2,1.197888601E0
2.142248085E0,-1.569590718E-1,-1.101029515E0,-4.540114850E-2,1.113087332E0
2.144692252E0,-1.575699300E-1,-9.904630184E-1,-3.807077184E-2,1.003640701E0
2.147137200E0,-1.539047509E-1,-8.682900667E-1,-3.074039519E-2,8.823600650E-1
2.149582981E0,-1.435200423E-1,-7.436736226E-1,-2.157742530E-2,7.577031376E-1
2.152027929E0,-1.264158338E-1,-6.239441633E-1,-9.970994666E-3,6.366998529E-1
2.154472095E0,-9.526173770E-2,-5.194862485E-1,4.689758178E-3,5.281692483E-1
2.156917043E0,-5.555552989E-2,-4.217479527E-1,2.484829351E-2,4.261164045E-1
2.159362773E0,-1.218413655E-2,-3.185118139E-1,5.111547932E-2,3.228173183E-1
2.161807720E0,3.179812431E-2,-2.073344290E-1,8.593475819E-2,2.266792201E-1
2.164251887E0,7.394778728E-2,-7.783110440E-2,1.244192421E-1,1.643353397E-1
2.166696835E0,1.142648607E-1,7.793939114E-2,1.702340990E-1,2.193414132E-1
2.169142616E0,1.509167552E-1,2.581444681E-1,2.178815603E-1,3.699821722E-1
2.171587564E0,1.826817244E-1,4.585081041E-1,2.716376483E-1,5.633731498E-1
2.174031731E0,2.126140893E-1,6.686456203E-1,3.290589154E-1,7.749654743E-1
2.176476679E0,2.462116480E-1,8.738961220E-1,3.834258914E-1,9.855607652E-1
2.178922408E0,2.871395648E-1,1.051046968E0,4.402363002E-1,1.175141208E0
2.181367356E0,3.323435485E-1,1.198265314E0,4.958249927E-1,1.338706249E0
2.183811523E0,3.793801367E-1,1.321049094E0,5.526354313E-1,1.481386485E0
2.186256470E0,4.148102999E-1,1.423063517E0,6.063915491E-1,1.601526793E0
2.188702252E0,4.465752542E-1,1.496367335E0,6.583150625E-1,1.694675008E0
2.191147200E0,4.649012089E-1,1.556842923E0,7.084059119E-1,1.772493147E0
2.193591366E0,4.832271338E-1,1.604490399E0,7.591077089E-1,1.839603875E0
2.196036314E0,4.783402383E-1,1.633811831E0,8.091986179E-1,1.884927820E0
2.198482043E0,4.734533131E-1,1.685735345E0,8.592895269E-1,1.950446150E0
2.200926991E0,4.221406579E-1,1.744989276E0,9.026609063E-1,2.009474314E0
2.203371158E0,3.781584203E-1,1.811573505E0,9.417562485E-1,2.076465070E0
2.205816106E0,3.164610863E-1,1.841505885E0,9.722995162E-1,2.106337554E0
2.208261887E0,2.602615356E-1,1.844560146E0,9.949014783E-1,2.111863431E0
2.210706835E0,2.077271640E-1,1.802410483E0,1.008951306E0,2.076009842E0
2.213151002E0,1.496950239E-1,1.727885008E0,1.010783911E0,2.007406116E0
2.215595950E0,9.960410744E-2,1.630757570E0,1.011394739E0,1.921512568E0
2.218041679E0,2.813293412E-2,1.519580126E0,1.002842784E0,1.820881344E0
2.220486627E0,-2.989921346E-2,1.426728725E0,9.961231947E-1,1.740319005E0
2.222930793E0,-1.148094088E-1,1.335098982E0,9.869602323E-1,1.664259893E0
2.225375741E0,-1.832262576E-1,1.267292976E0,9.784081578E-1,1.611485610E0
2.227821523E0,-2.632495463E-1,1.196432710E0,9.680234194E-1,1.561352264E0
2.230266470E0,-3.255577385E-1,1.140843987E0,9.606930614E-1,1.526579183E0
2.232710637E0,-3.762595057E-1,1.076092362E0,9.564170241E-1,1.488045534E0
2.235155585E0,-4.165765941E-1,1.011951566E0,9.539735317E-1,1.451773925E0
2.237601314E0,-4.263504148E-1,9.459781647E-1,9.576387405E-1,1.411991969E0
2.240046262E0,-4.336808026E-1,8.665657640E-1,9.631365538E-1,1.366253008E0
2.242490429E0,-4.037484229E-1,7.914294004E-1,9.784081578E-1,1.321611065E0
2.244935377E0,-3.848116100E-1,7.040757537E-1,9.991775751E-1,1.281467311E0
2.247381158E0,-3.414402306E-1,6.362697482E-1,1.023612022E0,1.252678010E0
2.249826106E0,-3.170056343E-1,5.611333847E-1,1.047435760E0,1.229831257E0
2.252270273E0,-2.846298218E-1,4.847752750E-1,1.065761685E0,1.204935340E0
2.254715220E0,-2.754668295E-1,4.139149785E-1,1.077368140E0,1.186562132E0
2.257160950E0,-3.243360221E-1,4.188019037E-1,1.073092103E0,1.196710304E0
2.259605898E0,-4.568936527E-1,5.880114436E-1,1.055377007E0,1.291638453E0
2.262050064E0,-6.572573185E-1,8.097553253E-1,1.013227344E0,1.454070328E0
2.264495012E0,-7.830954194E-1,9.160457850E-1,9.484757781E-1,1.533618146E0
2.266940793E0,-8.618969917E-1,8.604571223E-1,8.617329597E-1,1.491923784E0
2.269385741E0,-8.716707826E-1,7.431710958E-1,7.688815594E-1,1.379598522E0
2.271829908E0,-8.661730289E-1,6.063373685E-1,6.766409874E-1,1.255286320E0
2.274274856E0,-8.258559704E-1,5.171511173E-1,5.972285867E-1,1.142875910E0
2.276720585E0,-7.739324570E-1,4.914948046E-1,5.428615808E-1,1.065475146E0
2.279165533E0,-7.201763391E-1,5.470834970E-1,5.117074847E-1,1.039133708E0
2.281609700E0,-6.474834681E-1,6.686456203E-1,5.110966563E-1,1.061857617E0
2.284054648E0,-5.851752758E-1,8.360225558E-1,5.373638272E-1,1.153309889E0
2.286500429E0,-5.149258375E-1,1.029055834E0,5.929524899E-1,1.294487228E0
2.288945377E0,-4.355134070E-1,1.224532485E0,6.723649502E-1,1.463292985E0
2.291389543E0,-3.652639389E-1,1.396185517E0,7.743793130E-1,1.637808006E0
2.293834491E0,-2.986797094E-1,1.545847297E0,8.892219067E-1,1.808194965E0
2.296280220E0,-2.534756958E-1,1.664965987E0,1.010783911E0,1.964190872E0
2.298725168E0,-2.284302413E-1,1.743767500E0,1.130513310E0,2.090685489E0
2.301169335E0,-2.247650474E-1,1.767591238E0,1.242301583E0,2.172144409E0
2.303614283E0,-2.369823456E-1,1.721776366E0,1.333320379E0,2.190529096E0
2.306060064E0,-2.620278001E-1,1.604490399E0,1.398682952E0,2.144612322E0
2.308505012E0,-2.895167172E-1,1.412678838E0,1.434723973E0,2.034186399E0
2.310949179E0,-3.286120594E-1,1.166500330E0,1.440832615E0,1.882739368E0
2.313394127E0,-3.811464310E-1,8.989415765E-1,1.415176272E0,1.719329067E0
2.315839856E0,-4.434546232E-1,6.283285022E-1,1.360809326E0,1.563090123E0
2.318284804E0,-5.149258375E-1,3.797065616E-1,1.285673022E0,1.436064348E0
2.320728970E0,-5.918947458E-1,1.714016944E-1,1.190378070E0,1.340417055E0
2.323173918E0,-6.676419973E-1,8.300816640E-3,1.084087610E0,1.273208815E0
2.325619700E0,-7.287284732E-1,-1.132612675E-1,9.710777998E-1,1.219370902E0
2.328064648E0,-7.672129273E-1,-1.975605935E-1,8.562352061E-1,1.166526722E0
2.330508814E0,-7.824845314E-1,-2.439863086E-1,7.432252169E-1,1.106433497E0
2.332953762E0,-7.751541734E-1,-2.562036216E-1,6.363239288E-1,1.035090542E0
2.335399491E0,-7.470543981E-1,-2.366559356E-1,5.398072600E-1,9.515714285E-1
2.337844439E0,-7.030721307E-1,-1.853432953E-1,4.481775463E-1,8.541227494E-1
2.340288606E0,-6.456508636E-1,-1.028765589E-1,3.650999367E-1,7.488301462E-1
2.342733554E0,-5.821209550E-1,-8.621537127E-4,2.905744314E-1,6.506143633E-1
2.345179335E0,-5.167583823E-1,1.194781959E-1,2.221576124E-1,5.750376246E-1
2.347624283E0,-4.483415484E-1,2.459271997E-1,1.574059427E-1,5.350392158E-1
2.350068450E0,-3.805355728E-1,3.674892485E-1,9.876292944E-2,5.381540543E-1
2.352513398E0,-3.194490969E-1,4.798883498E-1,4.622856155E-2,5.783404133E-1
2.354959127E0,-2.638604045E-1,5.745724440E-1,-2.640618011E-3,6.322679648E-1
2.357404075E0,-2.125477642E-1,6.429892778E-1,-4.662287608E-2,6.788117972E-1
2.359848241E0,-1.630677134E-1,6.771976948E-1,-8.205303550E-2,7.013704425E-1
2.362293189E0,-1.196963266E-1,6.820846200E-1,-1.064876169E-1,7.006470238E-1
2.364738970E0,-9.098568559E-2,6.747542620E-1,-1.235918254E-1,6.919874626E-1
2.367183918E0,-7.693579793E-2,6.594825983E-1,-1.327547878E-1,6.770969267E-1
2.369628085E0,-7.754666358E-2,6.429892778E-1,-1.339765191E-1,6.613610240E-1
2.372073033E0,-9.526173770E-2,6.246633530E-1,-1.345873922E-1,6.460594937E-1
2.374518762E0,-1.221397892E-1,5.935092568E-1,-1.394743025E-1,6.217913212E-1
2.376963710E0,-1.502395570E-1,5.385314226E-1,-1.480264068E-1,5.783596068E-1
2.379407877E0,-1.783393323E-1,4.609515667E-1,-1.651306301E-1,5.211040101E-1
2.381852825E0,-2.033847868E-1,3.650457859E-1,-1.883434802E-1,4.583634626E-1
2.384298606E0,-2.247650474E-1,2.489815205E-1,-2.194975913E-1,4.008619671E-1
2.386743554E0,-2.382040769E-1,1.170347333E-1,-2.567603588E-1,3.692752265E-1
2.389187720E0,-2.437018603E-1,-2.468587644E-2,-2.958557010E-1,3.840971036E-1
2.391632668E0,-2.388149351E-1,-1.731260121E-1,-3.282315135E-1,4.412948173E-1
2.394078398E0,-2.314845622E-1,-3.099597096E-1,-3.538878262E-1,5.243059390E-1
2.396523345E0,-2.284302413E-1,-4.125849903E-1,-3.703811765E-1,5.996573732E-1
2.398967512E0,-2.308737040E-1,-4.767257869E-1,-3.856528103E-1,6.552085418E-1
2.401412460E0,-2.345388830E-1,-5.139884949E-1,-4.021461606E-1,6.934797726E-1
2.403858241E0,-2.357606143E-1,-5.372013450E-1,-4.296350777E-1,7.271551776E-1
2.406303189E0,-2.320954353E-1,-5.549164414E-1,-4.650652111E-1,7.603198002E-1
2.408747356E0,-2.241541892E-1,-5.744641423E-1,-5.102691650E-1,8.003928861E-1
2.411192304E0,-2.101043016E-1,-5.982878208E-1,-5.658578873E-1,8.498748629E-1
2.413638033E0,-1.856697053E-1,-6.318854094E-1,-6.275551915E-1,9.097131023E-1
2.416082981E0,-1.526830196E-1,-6.740350723E-1,-6.935285926E-1,9.790900326E-1
2.418527148E0,-1.129768118E-1,-7.198499441E-1,-7.595019937E-1,1.052516499E0
2.420972095E0,-6.838369370E-2,-7.619996071E-1,-8.236427903E-1,1.124147311E0
2.423417877E0,-1.768191904E-2,-7.949862480E-1,-8.828966618E-1,1.188201288E0
2.425862825E0,2.996552736E-2,-8.065927029E-1,-9.335984588E-1,1.234137676E0
2.428306991E0,7.516951859E-2,-7.937645316E-1,-9.794132710E-1,1.262918423E0
2.430751939E0,1.185409129E-1,-7.601670027E-1,-1.020341396E0,1.277889817E0
2.433197668E0,1.570253968E-1,-7.119086981E-1,-1.055160642E0,1.282511189E0
2.435642616E0,1.936772764E-1,-6.514330506E-1,-1.084482193E0,1.279834963E0
2.438086783E0,2.291074395E-1,-5.891248584E-1,-1.110749364E0,1.278015050E0
2.440531731E0,2.675918937E-1,-5.317035913E-1,-1.131518722E0,1.278533827E0
2.442977512E0,3.072980940E-1,-4.871104956E-1,-1.151677251E0,1.287660376E0
2.445422460E0,3.500586450E-1,-4.547346532E-1,-1.170614004E0,1.303710783E0
2.447866627E0,3.909865618E-1,-4.315218031E-1,-1.185885668E0,1.321138288E0
2.450311575E0,4.270275831E-1,-4.168610573E-1,-1.204211593E0,1.343968473E0
2.452757304E0,4.575708210E-1,-4.107523859E-1,-1.220094085E0,1.366278945E0
2.455202252E0,4.826162755E-1,-4.076980650E-1,-1.239641786E0,1.391347526E0
2.457646418E0,4.997205138E-1,-4.095306695E-1,-1.261022091E0,1.416902493E0
2.460091366E0,5.125486255E-1,-4.248022735E-1,-1.281791449E0,1.444351890E0
2.462537148E0,5.162138343E-1,-4.516803324E-1,-1.304393411E0,1.473748288E0
2.464982095E0,5.162138343E-1,-4.871104956E-1,-1.325773716E0,1.503804942E0
2.467426262E0,5.156029463E-1,-5.402556658E-1,-1.343488812E0,1.537102720E0
2.469871210E0,5.156029463E-1,-6.043964624E-1,-1.358760357E0,1.573966705E0
2.472316939E0,5.119377971E-1,-6.728133559E-1,-1.372199416E0,1.611734891E0
2.474761887E0,5.046074390E-1,-7.363432646E-1,-1.380140662E0,1.643660037E0
2.477206054E0,4.972770214E-1,-7.962080240E-1,-1.382584095E0,1.671158411E0
2.479651002E0,4.881140590E-1,-8.444663286E-1,-1.378918886E0,1.689022205E0
2.482096783E0,4.813945591E-1,-8.847833872E-1,-1.369755983E0,1.700239341E0
2.484541731E0,4.752859175E-1,-9.153266549E-1,-1.352651715E0,1.700995665E0
2.486985898E0,4.673446715E-1,-9.275439382E-1,-1.326384544E0,1.684649744E0
2.489430845E0,4.575708210E-1,-9.305982590E-1,-1.294619560E0,1.658741686E0
2.491876575E0,4.539056420E-1,-9.318199754E-1,-1.259189487E0,1.630912923E0
2.494321523E0,4.514621794E-1,-9.336525798E-1,-1.222537518E0,1.603160385E0
2.496765689E0,4.508513212E-1,-9.312090874E-1,-1.185885668E0,1.573766849E0
2.499210637E0,4.477970004E-1,-9.263222218E-1,-1.151677251E0,1.544330114E0
2.501656418E0,4.422992170E-1,-9.275439382E-1,-1.121134043E0,1.520824742E0
2.504101366E0,4.416883588E-1,-9.428155422E-1,-1.095477700E0,1.511311068E0
2.506545533E0,4.398557544E-1,-9.690827131E-1,-1.075929999E0,1.513347202E0
2.508990481E0,4.325253665E-1,-9.965716600E-1,-1.061269283E0,1.518725044E0
2.511436210E0,4.141994417E-1,-1.017341018E0,-1.053938866E0,1.522278245E0
2.513881158E0,3.952626288E-1,-1.041164756E0,-1.049662828E0,1.530375329E0
2.516325325E0,3.763258159E-1,-1.077816606E0,-1.046608567E0,1.548773466E0
2.518770273E0,3.531129658E-1,-1.105916381E0,-1.038667321E0,1.557745041E0
2.521216054E0,3.213479817E-1,-1.123020649E0,-1.026450038E0,1.555004689E0
2.523661002E0,2.865287066E-1,-1.138292193E0,-1.012400150E0,1.550084476E0
2.526105168E0,2.498768270E-1,-1.151120424E0,-9.983500838E-1,1.544091820E0
2.528550116E0,2.095597684E-1,-1.160283327E0,-9.836893082E-1,1.535518593E0
2.530995845E0,1.667992324E-1,-1.165781140E0,-9.708611965E-1,1.526250017E0
2.533440793E0,1.270930320E-1,-1.178609371E0,-9.610873461E-1,1.526093567E0
2.535884960E0,9.349545836E-2,-1.204876542E0,-9.531461000E-1,1.539141439E0
2.538329908E0,6.600654870E-2,-1.243360996E0,-9.421505332E-1,1.561393947E0
2.540775689E0,4.523714632E-2,-1.288564920E0,-9.281006455E-1,1.588652499E0
2.543220637E0,3.179812431E-2,-1.342321038E0,-9.091638327E-1,1.621547337E0
2.545664804E0,2.385688201E-2,-1.393022895E0,-8.865618706E-1,1.651385445E0
2.548109752E0,1.225045230E-2,-1.422955155E0,-8.602946401E-1,1.662846450E0
2.550555481E0,-1.157327183E-2,-1.417457461E0,-8.340274692E-1,1.644664530E0
2.553000429E0,-4.578169435E-2,-1.377140403E0,-8.077602983E-1,1.597212682E0
2.555444595E0,-8.304444700E-2,-1.324605942E0,-7.814931273E-1,1.540197646E0
2.557889543E0,-1.196963266E-1,-1.269017339E0,-7.601128221E-1,1.484083461E0
2.560335325E0,-1.520721465E-1,-1.226256728E0,-7.405651808E-1,1.440579150E0
2.562780273E0,-1.765067428E-1,-1.198156953E0,-7.240718603E-1,1.411033229E0
2.565224439E0,-1.881131679E-1,-1.185939670E0,-7.045241594E-1,1.392190273E0
2.567669387E0,-1.936109513E-1,-1.176776767E0,-6.849764585E-1,1.375311422E0
2.570115116E0,-1.917783618E-1,-1.155396461E0,-6.648179293E-1,1.346737837E0
2.572560064E0,-1.862805784E-1,-1.110192418E0,-6.403833628E-1,1.295113320E0
2.575004231E0,-1.758958697E-1,-1.033834338E0,-6.128944755E-1,1.214657332E0
2.577449179E0,-1.618459821E-1,-9.287656546E-1,-5.811294913E-1,1.107479683E0
2.579894960E0,-1.459635049E-1,-7.913210988E-1,-5.481427908E-1,9.736297783E-1
2.582339908E0,-1.196963266E-1,-6.324962378E-1,-5.108800530E-1,8.218133182E-1
2.584784075E0,-8.793136477E-2,-4.547346532E-1,-4.711738527E-1,6.606968512E-1
2.587229023E0,-5.127947778E-2,-2.598688006E-1,-4.302459359E-1,5.052454292E-1
2.589674752E0,-9.740677662E-3,-5.767257512E-2,-3.893179893E-1,3.936870630E-1
2.592119700E0,3.240898624E-2,1.494105607E-1,-3.465574682E-1,3.787821759E-1
2.594563866E0,7.700211555E-2,3.540502191E-1,-3.001317382E-1,4.704890474E-1
2.597008814E0,1.246495619E-1,5.501378179E-1,-2.537060380E-1,6.185110231E-1
2.599454595E0,1.765730679E-1,7.272886038E-1,-2.060585618E-1,7.762647051E-1
2.601899543E0,2.315508872E-1,8.861134052E-1,-1.590219736E-1,9.295702063E-1
2.604343710E0,2.883613110E-1,1.027223229E0,-1.144288629E-1,1.073048822E0
2.606788658E0,3.476151824E-1,1.151228666E0,-6.922487915E-2,1.204556284E0
2.609234387E0,4.038147330E-1,1.264849544E0,-2.463174798E-2,1.327974936E0
2.611679335E0,4.520730376E-1,1.382135630E0,2.057223953E-2,1.454335638E0
2.614123502E0,4.942227006E-1,1.506141186E0,6.760882586E-2,1.586596452E0
2.616568450E0,5.253767967E-1,1.642974854E0,1.176997274E-1,1.728941981E0
2.619014231E0,5.479788184E-1,1.789582372E0,1.714558303E-1,1.879436871E0
2.621459179E0,5.632504225E-1,1.936800718E0,2.258227915E-1,2.029641346E0
2.623903345E0,5.803546309E-1,2.068136692E0,2.844657898E-1,2.166776791E0
2.626348293E0,5.974588394E-1,2.181146622E0,3.412761986E-1,2.287100150E0
2.628794023E0,6.139522195E-1,2.277052402E0,3.968648911E-1,2.391528113E0
2.631238970E0,6.255586147E-1,2.357686520E0,4.493992627E-1,2.480316311E0
2.633683137E0,6.316672564E-1,2.418772936E0,4.964358509E-1,2.548708416E0
2.636128085E0,6.304455400E-1,2.463366032E0,5.422507524E-1,2.599936473E0
2.638573866E0,6.200608611E-1,2.490854979E0,5.862330198E-1,2.632964707E0
2.641018814E0,6.041783690E-1,2.500018120E0,6.277717948E-1,2.647493065E0
2.643462981E0,5.785220265E-1,2.492076874E0,6.668671370E-1,2.643831814E0
2.645907929E0,5.430918932E-1,2.473750830E0,7.059624791E-1,2.629215661E0
2.648353658E0,4.942227006E-1,2.451759815E0,7.450578213E-1,2.609692209E0
2.650798606E0,4.374122918E-1,2.424881697E0,7.829314470E-1,2.585413392E0
2.653242773E0,3.702171743E-1,2.393116713E0,8.183615804E-1,2.556126764E0
2.655687720E0,2.920264900E-1,2.349134445E0,8.537917733E-1,2.516480182E0
2.658133502E0,2.126140893E-1,2.290491343E0,8.867784142E-1,2.465346081E0
2.660578450E0,1.350342631E-1,2.200083494E0,9.173216820E-1,2.387484178E0
2.663022616E0,6.234135479E-2,2.076077938E0,9.454214573E-1,2.282062177E0
2.665467564E0,-1.768191904E-2,1.949018002E0,9.722995162E-1,2.178152926E0
2.667913293E0,-1.129768118E-1,1.837840676E0,9.949014783E-1,2.092904934E0
2.670358241E0,-2.186564058E-1,1.733993649E0,1.015059948E0,2.021111402E0
2.672802408E0,-3.280012012E-1,1.627703190E0,1.030942440E0,1.954442319E0
2.675247356E0,-4.355134070E-1,1.512860656E0,1.046213984E0,1.890233582E0
2.677693137E0,-5.448581576E-1,1.397407174E0,1.056598663E0,1.834671076E0
2.680138085E0,-6.535921097E-1,1.286840677E0,1.063929081E0,1.793066274E0
2.682582252E0,-7.611042857E-1,1.179328442E0,1.064539909E0,1.761630076E0
2.685027200E0,-8.618969917E-1,1.071816325E0,1.059653044E0,1.736237666E0
2.687472929E0,-9.461963177E-1,9.557520151E-1,1.051100969E0,1.706916118E0
2.689917877E0,-1.003006697E0,8.073118925E-1,1.040105343E0,1.655171909E0
2.692362043E0,-1.032939076E0,6.326045990E-1,1.030331492E0,1.590199578E0
2.694806991E0,-1.040880322E0,4.481233954E-1,1.021779418E0,1.525870113E0
2.697252773E0,-1.032328248E0,2.697508931E-1,1.019335985E0,1.475639863E0
2.699697720E0,-1.005450130E0,9.137842059E-2,1.021168590E0,1.435989299E0
2.702141887E0,-9.718526006E-1,-6.378121674E-2,1.030942440E0,1.418241106E0
2.704586835E0,-9.559701681E-1,-1.493022740E-1,1.042548776E0,1.422349493E0
2.707032564E0,-9.742960930E-1,-1.486914158E-1,1.054155231E0,1.443123440E0
2.709477512E0,-1.026830435E0,-6.866813451E-2,1.062707305E0,1.479338660E0
2.711921679E0,-1.098912477E0,4.861788452E-2,1.062096477E0,1.529058945E0
2.714366627E0,-1.170994520E0,1.646821797E-1,1.049268365E0,1.580921405E0
2.716812408E0,-1.226583242E0,2.434837371E-1,1.021779418E0,1.614875834E0
2.719257356E0,-1.262013316E0,2.838007808E-1,9.808515906E-1,1.623357735E0
2.721701523E0,-1.277284980E0,2.947963476E-1,9.307606816E-1,1.607693146E0
2.724146470E0,-1.270565510E0,2.880768478E-1,8.770046234E-1,1.570497404E0
2.726592200E0,-1.242465734E0,2.783029974E-1,8.238593936E-1,1.516548041E0
2.729037148E0,-1.194818258E0,2.660857141E-1,7.792662382E-1,1.451085162E0
2.731481314E0,-1.122736216E0,2.508141100E-1,7.456687093E-1,1.370936232E0
2.733926262E0,-1.029884815E0,2.318773121E-1,7.291753292E-1,1.283014607E0
2.736372043E0,-9.266486168E-1,2.221034616E-1,7.334513664E-1,1.202480151E0
2.738816991E0,-8.258559704E-1,2.434837371E-1,7.584968209E-1,1.147449276E0
2.741261158E0,-7.464435101E-1,3.204526603E-1,8.055334091E-1,1.144006947E0
2.743706106E0,-6.969634891E-1,4.554537833E-1,8.702850938E-1,1.204405413E0
2.746151835E0,-6.725289226E-1,6.264959574E-1,9.484757781E-1,1.320756843E0
2.748596783E0,-6.633659601E-1,7.908185124E-1,1.028498888E0,1.457140446E0
2.751040950E0,-6.658093929E-1,9.148240685E-1,1.104856968E0,1.581427881E0
2.753485898E0,-6.676419973E-1,9.771323204E-1,1.167776108E0,1.662598703E0
2.755931679E0,-6.688637137E-1,9.679692984E-1,1.213590980E0,1.690309527E0
2.758376627E0,-6.590898633E-1,8.812265396E-1,1.236803770E0,1.655488818E0
2.760820793E0,-6.334335804E-1,7.138496041E-1,1.239247322E0,1.564146184E0
2.763265741E0,-5.937273502E-1,4.841644466E-1,1.222143054E0,1.442414997E0
2.765711470E0,-5.503559709E-1,2.245469242E-1,1.188545465E0,1.328891771E0
2.768156418E0,-5.271431208E-1,-7.581664715E-3,1.138454556E0,1.254597995E0
2.770600585E0,-5.424147248E-1,-1.596869826E-1,1.071870327E0,1.211866191E0
2.773045533E0,-5.827317834E-1,-2.574253380E-1,9.894037247E-1,1.176759902E0
2.775491314E0,-6.181619763E-1,-3.490550518E-1,8.983848691E-1,1.145014861E0
2.777936262E0,-6.450399756E-1,-4.321326613E-1,7.957596183E-1,1.111777216E0
2.780380429E0,-6.645876765E-1,-4.913865328E-1,6.845822334E-1,1.073214955E0
2.782825377E0,-6.774158478E-1,-5.255949497E-1,5.660744905E-1,1.027415501E0
2.785271106E0,-6.761940718E-1,-5.372013450E-1,4.414580166E-1,9.699014838E-1
2.787716054E0,-6.597007513E-1,-5.237623453E-1,3.162307739E-1,8.997410616E-1
2.790160220E0,-6.297683716E-1,-4.816127121E-1,1.897817701E-1,8.152153866E-1
2.792605168E0,-5.808991790E-1,-4.229696989E-1,6.821969151E-2,7.218040930E-1
2.795050950E0,-5.198127031E-1,-3.521093726E-1,-4.662287608E-2,6.295712424E-1
2.797495898E0,-4.465089738E-1,-2.739186883E-1,-1.504698694E-1,5.450164154E-1
2.799940064E0,-3.664856851E-1,-1.938954145E-1,-2.451539189E-1,4.816717067E-1
2.802385012E0,-2.840189338E-1,-1.150938570E-1,-3.257880509E-1,4.472708405E-1
2.804830741E0,-2.021630555E-1,-3.995749727E-2,-3.935940564E-1,4.442778228E-1
2.807275689E0,-1.245832518E-1,2.540502883E-2,-4.479610026E-1,4.656559480E-1
2.809719856E0,-5.799899250E-2,8.404804766E-2,-4.882780910E-1,4.988421108E-1
2.812164804E0,6.440225989E-4,1.261977106E-1,-5.163778067E-1,5.315753156E-1
2.814610585E0,4.706974328E-2,1.494105607E-1,-5.304276943E-1,5.530755964E-1
2.817055533E0,8.249989897E-2,1.506322920E-1,-5.371472239E-1,5.639356886E-1
2.819499700E0,1.136539951E-1,1.310846210E-1,-5.359255075E-1,5.633085816E-1
2.821944648E0,1.344234049E-1,9.504359961E-2,-5.310385823E-1,5.559720438E-1
2.824390377E0,1.466407031E-1,4.495269805E-2,-5.255407691E-1,5.474644654E-1
2.826835325E0,1.558036655E-1,-1.307944767E-2,-5.212647319E-1,5.442083928E-1
2.829279491E0,1.576362699E-1,-7.416591793E-2,-5.200430155E-1,5.484473675E-1
2.831724439E0,1.600797176E-1,-1.395284384E-1,-5.243190527E-1,5.656891109E-1
2.834170220E0,1.588579863E-1,-2.036692351E-1,-5.371472239E-1,5.960236215E-1
2.836615168E0,1.533602029E-1,-2.641448677E-1,-5.566949248E-1,6.349811826E-1
2.839059335E0,1.478624344E-1,-3.160683811E-1,-5.841838121E-1,6.804654638E-1
2.841504283E0,1.411429197E-1,-3.624940813E-1,-6.214465499E-1,7.331569389E-1
2.843950012E0,1.319799423E-1,-4.046437442E-1,-6.642071009E-1,7.888766303E-1
2.846394960E0,1.234278306E-1,-4.431282282E-1,-7.155197263E-1,8.506265542E-1
2.848839127E0,1.148757264E-1,-4.803909659E-1,-7.723301649E-1,9.167692165E-1
2.851284075E0,1.081562117E-1,-5.182645321E-1,-8.303623199E-1,9.847829577E-1
2.853729856E0,1.044910252E-1,-5.598033667E-1,-8.896161914E-1,1.056274184E0
2.856174804E0,1.051018909E-1,-6.031747460E-1,-9.427614212E-1,1.124128675E0
2.858618970E0,1.112105399E-1,-6.514330506E-1,-9.928523302E-1,1.192681245E0
2.861063918E0,1.154865921E-1,-6.954153180E-1,-1.035002112E0,1.252265543E0
2.863509648E0,1.228169575E-1,-7.406193018E-1,-1.071653962E0,1.308450675E0
2.865954595E0,1.350342631E-1,-7.846015692E-1,-1.102197170E0,1.359658956E0
2.868398762E0,1.515276134E-1,-8.255295157E-1,-1.127242684E0,1.405395200E0
2.870843710E0,1.698535532E-1,-8.579053283E-1,-1.148012042E0,1.443185168E0
2.873289439E0,1.894012243E-1,-8.798964620E-1,-1.163283706E0,1.470822759E0
2.875734439E0,2.126140893E-1,-8.908920288E-1,-1.175500989E0,1.490199964E0
2.878178554E0,2.394921333E-1,-8.933355212E-1,-1.184663892E0,1.502941573E0
2.880623554E0,2.700353563E-1,-8.811181784E-1,-1.187718272E0,1.503317342E0
2.883069283E0,3.036329150E-1,-8.560727239E-1,-1.185274839E0,1.493294981E0
2.885514231E0,3.421173990E-1,-8.255295157E-1,-1.179166198E0,1.479518914E0
2.887958398E0,3.897648454E-1,-7.968188524E-1,-1.165116310E0,1.464354101E0
2.890403345E0,4.398557544E-1,-7.619996071E-1,-1.144346833E0,1.443484035E0
2.892849127E0,4.893358052E-1,-7.155738473E-1,-1.116858006E0,1.413813024E0
2.895294075E0,5.339289308E-1,-6.593742967E-1,-1.082038641E0,1.375013522E0
2.897738241E0,5.730242729E-1,-5.982878208E-1,-1.044165015E0,1.332886234E0
2.900183189E0,6.072326899E-1,-5.347579122E-1,-1.005069733E0,1.290295599E0
2.902628918E0,6.316672564E-1,-4.761149287E-1,-9.665850997E-1,1.248989873E0
2.905073866E0,6.475497484E-1,-4.315218031E-1,-9.287115335E-1,1.211625708E0
2.907518033E0,6.603779197E-1,-4.113632739E-1,-8.969465494E-1,1.187363404E0
2.909962981E0,6.652648449E-1,-4.138067067E-1,-8.712902069E-1,1.171733728E0
2.912408762E0,6.640431285E-1,-4.437390864E-1,-8.492990732E-1,1.165832994E0
2.914853710E0,6.585453153E-1,-4.944408536E-1,-8.334166408E-1,1.171638591E0
2.917297825E0,6.432737112E-1,-5.604141951E-1,-8.230319023E-1,1.185430997E0
2.919742825E0,6.182282567E-1,-6.318854094E-1,-8.163124323E-1,1.203266943E0
2.922188554E0,5.858524442E-1,-7.119086981E-1,-8.163124323E-1,1.231423188E0
2.924633502E0,5.516439676E-1,-7.955971360E-1,-8.157015443E-1,1.265960062E0
2.927077668E0,5.113269091E-1,-8.798964620E-1,-8.169232607E-1,1.305004447E0
2.929522616E0,4.722315669E-1,-9.623631835E-1,-8.187558651E-1,1.348890921E0
2.931968398E0,4.374122918E-1,-1.041775584E0,-8.218101859E-1,1.397139171E0
2.934413345E0,4.062581956E-1,-1.118744612E0,-8.224210739E-1,1.446724456E0
2.936857460E0,3.806018829E-1,-1.182885408E0,-8.193667531E-1,1.488434600E0
2.939302460E0,3.573890030E-1,-1.226867676E0,-8.120363355E-1,1.514045641E0
2.941748189E0,3.360087574E-1,-1.251302242E0,-7.961538434E-1,1.520697251E0
2.944193137E0,3.213479817E-1,-1.257410884E0,-7.747735977E-1,1.511496207E0
2.946637304E0,3.170719445E-1,-1.256189108E0,-7.430086136E-1,1.493521842E0
2.949082252E0,3.213479817E-1,-1.247026205E0,-7.045241594E-1,1.467887316E0
2.951528033E0,3.329544365E-1,-1.231143713E0,-6.574875712E-1,1.434874003E0
2.953972981E0,3.531129658E-1,-1.206098199E0,-6.049532294E-1,1.394750889E0
2.956417095E0,3.793801367E-1,-1.168835521E0,-5.499753952E-1,1.346320429E0
2.958862095E0,4.093125165E-1,-1.117522836E0,-4.974410832E-1,1.289899863E0
2.961307825E0,4.380231500E-1,-1.053382039E0,-4.473501444E-1,1.225397957E0
2.963752773E0,4.587925673E-1,-9.794674516E-1,-4.058113396E-1,1.155218573E0
2.966196939E0,4.752859175E-1,-9.092179537E-1,-3.740463853E-1,1.092009473E0
2.968641887E0,4.911683798E-1,-8.579053283E-1,-3.551095724E-1,1.050405035E0
2.971087616E0,5.027748346E-1,-8.261404037E-1,-3.453357220E-1,1.026911516E0
2.973532616E0,5.088834763E-1,-8.090361953E-1,-3.422814012E-1,1.015213532E0
2.975976783E0,5.094943047E-1,-8.090361953E-1,-3.398379385E-1,1.014698889E0
2.978421731E0,5.033856630E-1,-8.212534785E-1,-3.373945057E-1,1.020631890E0
2.980867460E0,4.936118424E-1,-8.389685154E-1,-3.325075805E-1,1.028631184E0
2.983312408E0,4.777293503E-1,-8.585162163E-1,-3.233446181E-1,1.034324498E0
2.985756575E0,4.551273584E-1,-8.725661039E-1,-3.099055886E-1,1.031772258E0
2.988201523E0,4.313036501E-1,-8.780638576E-1,-2.928013802E-1,1.021152107E0
2.990647252E0,4.062581956E-1,-8.841724992E-1,-2.714211047E-1,1.010186194E0
2.993092252E0,3.848779202E-1,-8.908920288E-1,-2.475973815E-1,1.001560824E0
2.995536418E0,3.696063161E-1,-9.018875957E-1,-2.207193226E-1,9.993633391E-1
2.997981366E0,3.579998910E-1,-9.165483713E-1,-1.920086741E-1,1.002542852E0
3.000427095E0,3.439499736E-1,-9.238787293E-1,-1.596328467E-1,9.986671801E-1
3.002872043E0,3.268457651E-1,-9.244896173E-1,-1.272570193E-1,9.887889339E-1
3.005316210E0,3.085198402E-1,-9.147157669E-1,-9.121601284E-2,9.696441549E-1
3.007761158E0,2.859178483E-1,-8.970006704E-1,-5.456411839E-2,9.430463731E-1
3.010206887E0,2.608723938E-1,-8.725661039E-1,-1.852310263E-2,9.109166356E-1
3.012651887E0,2.358269542E-1,-8.475206494E-1,1.690705307E-2,8.798814988E-1
3.015096002E0,2.156684101E-1,-8.188099861E-1,5.050461367E-2,8.482413409E-1
3.017541002E0,1.973424703E-1,-7.900993824E-1,7.982611656E-2,8.182745832E-1
3.019986731E0,1.857360452E-1,-7.577235103E-1,1.073150337E-1,7.875019447E-1
3.022431679E0,1.759622097E-1,-7.155738473E-1,1.305278838E-1,7.483623177E-1
3.024875845E0,1.692426950E-1,-6.593742967E-1,1.488538384E-1,6.968321305E-1
3.027320793E0,1.625231802E-1,-5.842379332E-1,1.659580469E-1,6.287207806E-1
3.029766575E0,1.545819342E-1,-4.956625998E-1,1.793970764E-1,5.493271323E-1
3.032211523E0,1.478624344E-1,-3.960916400E-1,1.916143745E-1,4.641852597E-1
3.034655637E0,1.460298300E-1,-2.952989638E-1,2.038316727E-1,3.873932628E-1
3.037100585E0,1.515276134E-1,-1.969497353E-1,2.136055082E-1,3.276844961E-1
3.039546366E0,1.649666429E-1,-1.059308797E-1,2.239902020E-1,2.976692042E-1
3.041991314E0,1.826817244E-1,-1.796636544E-2,2.368183583E-1,2.996303348E-1
3.044435481E0,2.040619850E-1,6.999816000E-2,2.520899773E-1,3.317987233E-1
3.046880429E0,2.309400290E-1,1.659039110E-1,2.685832977E-1,3.911449763E-1
3.049326158E0,2.590397894E-1,2.728052139E-1,2.893527150E-1,4.746043520E-1
3.051771158E0,2.865287066E-1,3.882586658E-1,3.107329905E-1,5.739324722E-1
3.054215273E0,3.182936609E-1,5.165402889E-1,3.333349824E-1,6.922694094E-1
3.056660220E0,3.445608616E-1,6.649804115E-1,3.571586907E-1,8.297490376E-1
3.059106002E0,3.726606369E-1,8.256378174E-1,3.834258914E-1,9.836509391E-1
3.061550950E0,3.995386660E-1,9.917930365E-1,4.139691293E-1,1.146584063E0
3.063995116E0,4.251950085E-1,1.162224293E0,4.481775463E-1,1.316213970E0
3.066440064E0,4.520730376E-1,1.325936079E0,4.860511422E-1,1.482808899E0
3.068885793E0,4.820054173E-1,1.468878388E0,5.263682604E-1,1.633094145E0
3.071330741E0,5.149921179E-1,1.585553527E0,5.672962070E-1,1.760971849E0
3.073774908E0,5.443136096E-1,1.675961494E0,6.088349819E-1,1.864350898E0
3.076219908E0,5.705807805E-1,1.746210933E0,6.528172493E-1,1.949611605E0
3.078665637E0,5.889067650E-1,1.795080185E0,6.967995167E-1,2.013617048E0
3.081110585E0,5.974588394E-1,1.829899430E0,7.383382916E-1,2.061706192E0
3.083554752E0,5.980697274E-1,1.854944825E0,7.786554098E-1,2.098764387E0
3.085999700E0,5.852415562E-1,1.880601168E0,8.183615804E-1,2.132811315E0
3.088445429E0,5.656938553E-1,1.900759697E0,8.574569225E-1,2.160585415E0
3.090890429E0,5.369832516E-1,1.919085622E0,8.934979439E-1,2.183936632E0
3.093334543E0,4.966661930E-1,1.939855099E0,9.295389652E-1,2.207658896E0
3.095779543E0,4.441317916E-1,1.962457061E0,9.588604569E-1,2.228879570E0
3.098225273E0,3.897648454E-1,1.967954874E0,9.839059114E-1,2.234465006E0
3.100670220E0,3.366196156E-1,1.942909360E0,9.997884035E-1,2.210833869E0
3.103114387E0,2.865287066E-1,1.883655548E0,1.007729530E0,2.155406164E0
3.105559335E0,2.346052229E-1,1.800577879E0,1.007118702E0,2.076393120E0
3.108005064E0,1.796273887E-1,1.692454815E0,9.979557991E-1,1.972963526E0
3.110450064E0,1.179300472E-1,1.569060206E0,9.802407622E-1,1.853841789E0
3.112894179E0,5.623271316E-2,1.430393934E0,9.570279121E-1,1.721944061E0
3.115339179E0,-7.908083498E-3,1.285008073E0,9.313715696E-1,1.587060580E0
3.117784908E0,-8.365530521E-2,1.157337427E0,9.051043987E-1,1.471612076E0
3.120229856E0,-1.691763550E-1,1.055933833E0,8.763937354E-1,1.382636206E0
3.122674023E0,-2.614169419E-1,9.807974100E-1,8.513482809E-1,1.324800465E0
3.125118970E0,-3.506031930E-1,9.197109938E-1,8.287463188E-1,1.286705628E0
3.127564700E0,-4.318481982E-1,8.677874804E-1,8.104203343E-1,1.263459178E0
3.130009700E0,-4.978215992E-1,8.121988177E-1,7.969813347E-1,1.242043684E0
3.132453814E0,-5.479124784E-1,7.517231703E-1,7.878183722E-1,1.218996963E0
3.134898762E0,-5.778448582E-1,6.820846200E-1,7.829314470E-1,1.188328978E0
3.137344543E0,-5.845643878E-1,6.051156521E-1,7.835422754E-1,1.149703863E0
3.139789491E0,-5.760122538E-1,5.287575722E-1,7.927052975E-1,1.113443476E0
3.142233658E0,-5.546320081E-1,4.640058875E-1,8.079769015E-1,1.084317666E0
3.144678606E0,-5.356951952E-1,4.297974706E-1,8.281354308E-1,1.075873366E0
3.147124335E0,-5.265322328E-1,4.401821494E-1,8.501265645E-1,1.092571138E0
3.149569283E0,-5.173692703E-1,4.719471037E-1,8.672307730E-1,1.114672259E0
3.152013450E0,-5.051519871E-1,5.098207593E-1,8.837240934E-1,1.138448071E0
3.154458398E0,-4.965998530E-1,5.550247431E-1,8.934979439E-1,1.163186337E0
3.156904179E0,-4.917129576E-1,6.142786145E-1,8.928871155E-1,1.190112285E0
3.159349127E0,-4.959889948E-1,6.869715452E-1,8.825023770E-1,1.223415478E0
3.161793293E0,-5.008759499E-1,7.651622295E-1,8.611221313E-1,1.256137445E0
3.164238241E0,-5.124823451E-1,8.451855183E-1,8.275245428E-1,1.289097973E0
3.166683970E0,-5.234779119E-1,9.197109938E-1,7.835422754E-1,1.316752040E0
3.169128918E0,-5.320300460E-1,9.759105444E-1,7.328405380E-1,1.331357433E0
3.171573085E0,-5.283648372E-1,1.002177715E0,6.815279126E-1,1.322123243E0
3.174018085E0,-5.161475539E-1,1.010118961E0,6.357130408E-1,1.300338296E0
3.176463814E0,-4.965998530E-1,1.011951566E0,6.002829075E-1,1.277104911E0
3.178908762E0,-4.691109657E-1,1.010118961E0,5.782917738E-1,1.254921029E0
3.181352929E0,-4.373459816E-1,1.001566887E0,5.734048486E-1,1.234180237E0
3.183797877E0,-3.860333562E-1,9.875169992E-1,5.825678110E-1,1.209792061E0
3.186243606E0,-3.359424472E-1,9.679692984E-1,6.112784743E-1,1.193098179E0
3.188688554E0,-2.913493216E-1,9.643040895E-1,6.577041745E-1,1.203055105E0
3.191132720E0,-2.815755010E-1,1.002177715E0,7.139037251E-1,1.262261251E0
3.193577668E0,-2.748559713E-1,1.049825191E0,7.798771262E-1,1.336370858E0
3.196023450E0,-2.931819260E-1,1.062653303E0,8.470722437E-1,1.390222669E0
3.198468398E0,-3.017340302E-1,1.057155609E0,9.106021523E-1,1.427521519E0
3.200912564E0,-3.389967680E-1,1.011340737E0,9.606930614E-1,1.435499932E0
3.203357512E0,-3.622096181E-1,9.288739562E-1,9.955123663E-1,1.408917139E0
3.205803241E0,-3.903093934E-1,7.853207588E-1,1.010172963E0,1.337729245E0
3.208248189E0,-4.116896689E-1,6.124460697E-1,1.003453612E0,1.245591315E0
3.210692356E0,-4.318481982E-1,4.163584411E-1,9.747429490E-1,1.144539660E0
3.213137304E0,-4.648348987E-1,2.263795286E-1,9.258737564E-1,1.060453387E0
3.215583085E0,-4.911020994E-1,6.388950348E-2,8.617329597E-1,9.939048418E-1
3.218028033E0,-5.399712920E-1,-7.416591793E-2,7.841531634E-1,9.549689855E-1
3.220472200E0,-5.692927837E-1,-1.657956243E-1,6.986321211E-1,9.163347114E-1
3.222917148E0,-6.157184839E-1,-2.390993983E-1,6.039480567E-1,8.950033681E-1
3.225362877E0,-6.346552968E-1,-2.800273299E-1,5.062097311E-1,8.587496394E-1
3.227807825E0,-6.511486173E-1,-3.191227019E-1,4.060278833E-1,8.310790953E-1
3.230251991E0,-6.425965428E-1,-3.460007310E-1,3.058460653E-1,7.913208189E-1
3.232696939E0,-6.169402003E-1,-3.667701483E-1,2.081077248E-1,7.472913606E-1
3.235142720E0,-5.876187086E-1,-3.771548271E-1,1.115910858E-1,7.071025956E-1
3.237587668E0,-5.332517624E-1,-3.704353273E-1,2.179397084E-2,6.496574105E-1
3.240031835E0,-4.935455322E-1,-3.514985144E-1,-6.617055833E-2,6.095218953E-1
3.242476783E0,-4.281830192E-1,-3.044619262E-1,-1.449720860E-1,5.450272178E-1
3.244922512E0,-3.823681772E-1,-2.549818754E-1,-2.207193226E-1,5.098413470E-1
3.247367460E0,-3.145621717E-1,-1.822889745E-1,-2.897470295E-1,4.648999583E-1
3.249811627E0,-2.553083003E-1,-1.230351031E-1,-3.508335054E-1,4.510034515E-1
3.252256575E0,-1.856697053E-1,-6.072689965E-2,-4.033678770E-1,4.481814811E-1
3.254702356E0,-1.141985431E-1,-2.083883155E-3,-4.449066818E-1,4.593338713E-1
3.257147304E0,-5.616639555E-2,6.327864528E-2,-4.754499197E-1,4.829197419E-1
3.259591470E0,3.315787762E-5,1.487997025E-1,-4.931649864E-1,5.151243116E-1
3.262036418E0,2.202428877E-2,2.337098867E-1,-5.023279190E-1,5.544715670E-1
3.264482148E0,5.745444074E-2,3.192309439E-1,-5.035496950E-1,5.989755451E-1
3.266927095E0,6.722828001E-2,3.711544573E-1,-5.023279190E-1,6.281788050E-1
3.269371262E0,9.410632402E-2,4.047520161E-1,-4.992736280E-1,6.495801339E-1
3.271816210E0,1.081562117E-1,3.974216282E-1,-5.041605234E-1,6.510142472E-1
3.274261991E0,1.295364797E-1,3.717653155E-1,-5.139343739E-1,6.473929950E-1
3.276706939E0,1.484732926E-1,3.076245189E-1,-5.292059779E-1,6.298699312E-1
3.279151106E0,1.594688594E-1,2.184382826E-1,-5.530297160E-1,6.156195800E-1
3.281596054E0,1.845143139E-1,1.188673228E-1,-5.744099617E-1,6.149160728E-1
3.284041783E0,1.857360452E-1,9.522547945E-3,-5.976228118E-1,6.258926286E-1
3.286486731E0,1.887903661E-1,-9.310272336E-2,-6.202248335E-1,6.549723380E-1
3.288930898E0,1.814599931E-1,-1.780129224E-1,-6.385507584E-1,6.872869857E-1
3.291375845E0,1.539710760E-1,-2.403211296E-1,-6.526006460E-1,7.122843117E-1
3.293821627E0,1.112105399E-1,-2.739186883E-1,-6.684831381E-1,7.309370273E-1
3.296266575E0,6.050876528E-2,-3.007967472E-1,-6.892525554E-1,7.544594614E-1
3.298710741E0,1.652650535E-2,-3.392812312E-1,-7.124654055E-1,7.892983170E-1
3.301155689E0,-1.279500127E-2,-4.046437442E-1,-7.399542928E-1,8.434646568E-1
3.303601418E0,-2.867748588E-2,-4.913865328E-1,-7.686649561E-1,9.127589701E-1
3.306046366E0,-3.173180670E-2,-5.897357464E-1,-7.955430150E-1,9.907995997E-1
3.308490533E0,-2.806662023E-2,-6.838089228E-1,-8.187558651E-1,1.067119274E0
3.310935481E0,-1.646018960E-2,-7.668864727E-1,-8.370817900E-1,1.135381752E0
3.313381262E0,-1.799436286E-3,-8.359141946E-1,-8.480773568E-1,1.190794265E0
3.315826210E0,1.469391119E-2,-8.786747456E-1,-8.547968864E-1,1.225953888E0
3.318270377E0,2.263515070E-2,-8.829507828E-1,-8.609055281E-1,1.233398866E0
3.320715325E0,2.019169182E-2,-8.560727239E-1,-8.694576621E-1,1.220338002E0
3.323161054E0,1.591563970E-2,-8.127013445E-1,-8.810640574E-1,1.198753793E0
3.325606002E0,1.713737100E-2,-7.717733979E-1,-9.006117582E-1,1.186182704E0
3.328050168E0,2.568947524E-2,-7.393975854E-1,-9.219920039E-1,1.182132816E0
3.330495116E0,3.973936290E-2,-7.143521309E-1,-9.439831376E-1,1.184475558E0
3.332940898E0,5.806530640E-2,-6.917501688E-1,-9.629199505E-1,1.187057162E0
3.335385845E0,8.005643636E-2,-6.654829383E-1,-9.733046293E-1,1.181777676E0
3.337830012E0,1.063236222E-1,-6.312745214E-1,-9.733046293E-1,1.164961002E0
3.340274960E0,1.356451362E-1,-5.842379332E-1,-9.623090625E-1,1.133918999E0
3.342720689E0,1.631340533E-1,-5.268166661E-1,-9.397071004E-1,1.089586139E0
3.345165637E0,1.894012243E-1,-4.565672576E-1,-9.067203999E-1,1.032699554E0
3.347609804E0,2.168901414E-1,-3.771548271E-1,-8.651815653E-1,9.684142905E-1
3.350054752E0,2.413247377E-1,-2.922446430E-1,-8.187558651E-1,9.022226593E-1
3.352500533E0,2.639267147E-1,-2.024475187E-1,-7.662215233E-1,8.353069683E-1
3.354945481E0,2.822526395E-1,-1.120395362E-1,-7.088001966E-1,7.711142127E-1
3.357389648E0,2.963025272E-1,-2.712933533E-2,-6.495463252E-1,7.144519697E-1
3.359834595E0,3.103524148E-1,4.617442936E-2,-5.884598494E-1,6.668850678E-1
3.362280325E0,3.213479817E-1,1.072608978E-1,-5.243190527E-1,6.242434578E-1
3.364725273E0,3.323435485E-1,1.549083441E-1,-4.589565694E-1,5.874435819E-1
3.367169439E0,3.390630782E-1,1.897276342E-1,-3.917614520E-1,5.517584448E-1
3.369614387E0,3.451717198E-1,2.117187679E-1,-3.215120137E-1,5.170477036E-1
3.372060168E0,3.488368988E-1,2.233252078E-1,-2.494299561E-1,4.835045330E-1
3.374505116E0,3.463934362E-1,2.251577824E-1,-1.767370552E-1,4.493555678E-1
3.376949283E0,3.402847946E-1,2.214926034E-1,-1.052659005E-1,4.194444237E-1
3.379394231E0,3.311218321E-1,2.159948200E-1,-3.379471600E-2,3.967839624E-1
3.381839960E0,3.152393401E-1,2.092753053E-1,3.340040147E-2,3.798520524E-1
3.384284908E0,2.956916690E-1,2.025557905E-1,9.631946683E-2,3.711331986E-1
3.386729075E0,2.712570727E-1,1.915602386E-1,1.549624950E-1,3.664547712E-1
3.389174023E0,2.480442226E-1,1.732342839E-1,2.099403143E-1,3.682539736E-1
3.391619804E0,2.211661935E-1,1.433019191E-1,2.588094771E-1,3.693673924E-1
3.394064752E0,1.948990077E-1,1.005413830E-1,3.021808565E-1,3.733730881E-1
3.396508918E0,1.674101055E-1,4.312010109E-2,3.388327658E-1,3.803855015E-1
3.398953866E0,1.429755092E-1,-3.140538931E-2,3.724303246E-1,4.001657673E-1
3.401399595E0,1.160974577E-1,-1.138721257E-1,3.993083537E-1,4.311526899E-1
3.403844543E0,8.249989897E-2,-2.000040561E-1,4.219103456E-1,4.741478625E-1
3.406288710E0,4.584801197E-2,-2.904120386E-1,4.396254420E-1,5.288777946E-1
3.408733658E0,3.698346205E-3,-3.814308941E-1,4.481775463E-1,5.885289438E-1
3.411179439E0,-4.028391466E-2,-4.791692495E-1,4.512318671E-1,6.594210805E-1
3.413624387E0,-8.365530521E-2,-5.799618959E-1,4.463449419E-1,7.365988175E-1
3.416068554E0,-1.288592964E-1,-6.844197512E-1,4.347385168E-1,8.209949403E-1
3.418513502E0,-1.740632802E-1,-7.913210988E-1,4.164125621E-1,9.109810804E-1
3.420959231E0,-2.143803537E-1,-8.951680660E-1,3.907562494E-1,9.999876244E-1
3.423404179E0,-2.528648376E-1,-1.002069473E0,3.589912951E-1,1.094056034E0
3.425848345E0,-2.858515382E-1,-1.109581590E0,3.217285573E-1,1.190122544E0
3.428293293E0,-3.145621717E-1,-1.210985184E0,2.808006108E-1,1.282296166E0
3.430739075E0,-3.408293724E-1,-1.306280017E0,2.380400896E-1,1.370837418E0
3.433184023E0,-3.652639389E-1,-1.393022895E0,1.903926432E-1,1.452645824E0
3.435628189E0,-3.835898936E-1,-1.473046064E0,1.409126073E-1,1.528679913E0
3.438073137E0,-3.994723856E-1,-1.544517279E0,9.143254161E-2,1.597958610E0
3.440518866E0,-4.116896689E-1,-1.609268904E0,4.195250571E-2,1.661624145E0
3.442963814E0,-4.208526313E-1,-1.669744611E0,-8.749265224E-3,1.721987384E0
3.445407981E0,-4.251286983E-1,-1.727776766E0,-5.884017423E-2,1.780283441E0
3.447852929E0,-4.257395566E-1,-1.785808802E0,-1.101528108E-1,1.839157657E0
3.450298710E0,-4.251286983E-1,-1.843840957E0,-1.614654362E-1,1.899093197E0
3.452743658E0,-4.239069521E-1,-1.898818851E0,-2.146106660E-1,1.957362478E0
3.455187825E0,-4.202417731E-1,-1.952574968E0,-2.708102465E-1,2.015562042E0
3.457632773E0,-4.184091687E-1,-2.004498482E0,-3.288423717E-1,2.073937728E0
3.460078502E0,-4.153548479E-1,-2.053978443E0,-3.880962729E-1,2.131188826E0
3.462523450E0,-4.110788107E-1,-2.102236748E0,-4.504044652E-1,2.188892257E0
3.464967616E0,-4.037484229E-1,-2.148051739E0,-5.151560903E-1,2.245556692E0
3.467412564E0,-3.988615274E-1,-2.185314417E0,-5.805186033E-1,2.296016435E0
3.469858345E0,-3.890876770E-1,-2.212192535E0,-6.446594000E-1,2.336829214E0
3.472303293E0,-3.750377893E-1,-2.229296684E0,-7.075784802E-1,2.368772753E0
3.474747460E0,-3.530466557E-1,-2.234794378E0,-7.619454265E-1,2.387364381E0
3.477192408E0,-3.255577385E-1,-2.220133781E0,-8.138689399E-1,2.386915269E0
3.479638137E0,-2.962362468E-1,-2.181038380E0,-8.590729237E-1,2.362771808E0
3.482083085E0,-2.608060837E-1,-2.119951963E0,-8.963356614E-1,2.316383768E0
3.484527252E0,-2.180455476E-1,-2.046648026E0,-9.256572127E-1,2.256801559E0
3.486972200E0,-1.612351239E-1,-1.966013908E0,-9.488700628E-1,2.188963647E0
3.489417981E0,-9.892692417E-2,-1.874995112E0,-9.641416669E-1,2.110678176E0
3.491862929E0,-3.051007912E-2,-1.777256727E0,-9.745263457E-1,2.027134415E0
3.494307095E0,4.340455309E-2,-1.675853252E0,-9.818567634E-1,1.942784286E0
3.496752043E0,1.203735098E-1,-1.575060487E0,-9.849110842E-1,1.861546444E0
3.499197773E0,1.936772764E-1,-1.473046064E0,-9.855219126E-1,1.782871009E0
3.501642720E0,2.633158565E-1,-1.375307798E0,-9.824675918E-1,1.710569890E0
3.504086887E0,3.250131905E-1,-1.280012846E0,-9.818567634E-1,1.645633362E0
3.506531835E0,3.775475621E-1,-1.192048311E0,-9.800241590E-1,1.588700315E0
3.508977616E0,4.215297997E-1,-1.118133664E0,-9.788024426E-1,1.544656753E0
3.511422564E0,4.557382464E-1,-1.056436419E0,-9.806349874E-1,1.511754026E0
3.513866731E0,4.783402383E-1,-1.002069473E0,-9.812458754E-1,1.481821879E0
3.516311679E0,4.942227006E-1,-9.525893927E-1,-9.763589501E-1,1.450847831E0
3.518757408E0,5.046074390E-1,-9.086071253E-1,-9.635307789E-1,1.417246322E0
3.521202356E0,5.107160807E-1,-8.701226115E-1,-9.421505332E-1,1.380431781E0
3.523646523E0,5.241550803E-1,-8.322490454E-1,-9.079421163E-1,1.338557398E0
3.526091470E0,5.400375724E-1,-7.937645316E-1,-8.590729237E-1,1.288296938E0
3.528537252E0,5.632504225E-1,-7.516148686E-1,-7.985973358E-1,1.232855893E0
3.530982200E0,5.919610858E-1,-7.015239596E-1,-7.301805019E-1,1.172909783E0
3.533426366E0,6.267803311E-1,-6.416592598E-1,-6.477137208E-1,1.106396517E0
3.535871314E0,6.597670317E-1,-5.640794039E-1,-5.597492456E-1,1.032858813E0
3.538317043E0,6.866450906E-1,-4.712280035E-1,-4.699521363E-1,9.562386324E-1
3.540761991E0,7.061927915E-1,-3.631049395E-1,-3.801550269E-1,8.803813380E-1
3.543206158E0,7.184100747E-1,-2.562036216E-1,-2.897470295E-1,8.159084951E-1
3.545651106E0,7.214643955E-1,-1.548000574E-1,-2.017825097E-1,7.649771977E-1
3.548096887E0,7.214643955E-1,-6.927900016E-2,-1.162614524E-1,7.340484856E-1
3.550541835E0,7.202426791E-1,-5.749071483E-3,-3.562731296E-2,7.211462224E-1
3.552986002E0,7.171883583E-1,3.151367605E-2,4.256337136E-2,7.191410805E-1
3.555430950E0,7.098579407E-1,4.983961582E-2,1.158671379E-1,7.209767520E-1
3.557876679E0,6.958080530E-1,5.716999620E-2,1.879491806E-1,7.230090937E-1
3.560321627E0,6.701517701E-1,6.877642870E-2,2.514790893E-1,7.190794980E-1
3.562765793E0,6.359433532E-1,8.832409978E-2,3.119547069E-1,7.138212901E-1
3.565210741E0,5.950154066E-1,1.133695543E-1,3.663216531E-1,7.078753729E-1
3.567656523E0,5.534765720E-1,1.426910609E-1,4.145799875E-1,7.060974584E-1
3.570101470E0,5.119377971E-1,1.701799631E-1,4.548970461E-1,7.056719142E-1
3.572545637E0,4.734533131E-1,1.958362907E-1,4.939923882E-1,7.117150919E-1
3.574990585E0,4.392448962E-1,2.184382826E-1,5.294225812E-1,7.217614783E-1
3.577436314E0,4.129776955E-1,2.392076701E-1,5.648527145E-1,7.394791921E-1
3.579881262E0,3.934300244E-1,2.642531097E-1,6.027263403E-1,7.667437195E-1
3.582325429E0,3.744932115E-1,2.947963476E-1,6.430433989E-1,8.004091859E-1
3.584770377E0,3.579998910E-1,3.393894732E-1,6.864148378E-1,8.452895753E-1
3.587216158E0,3.408956528E-1,3.986433446E-1,7.346731424E-1,9.027020486E-1
3.589661106E0,3.231805861E-1,4.719471037E-1,7.859857678E-1,9.720871294E-1
3.592105273E0,3.036329150E-1,5.605225563E-1,8.409636021E-1,1.055271654E0
3.594550220E0,2.834743857E-1,6.527631283E-1,8.934979439E-1,1.142276676E0
3.596995950E0,2.633158565E-1,7.413384914E-1,9.460323453E-1,1.230404485E0
3.599440898E0,2.407138646E-1,8.262487054E-1,9.967340827E-1,1.316855694E0
3.601885064E0,2.162792832E-1,9.013850689E-1,1.043159723E0,1.395512085E0
3.604330012E0,1.930664182E-1,9.581954479E-1,1.081033349E0,1.457410807E0
3.606775793E0,1.704644263E-1,9.972908497E-1,1.112798214E0,1.503983718E0
3.609220741E0,1.460298300E-1,1.022947073E0,1.140287161E0,1.538830801E0
3.611664908E0,1.270930320E-1,1.027834058E0,1.166554332E0,1.559950159E0
3.614109856E0,1.099888086E-1,1.018671036E0,1.190378070E0,1.570601212E0
3.616555585E0,9.166286886E-2,1.005842924E0,1.211758375E0,1.577491816E0
3.619000533E0,6.478481740E-2,1.010729790E0,1.232527733E0,1.595273140E0
3.621444700E0,3.240898624E-2,1.026001453E0,1.253297210E0,1.620025685E0
3.623889648E0,1.254887320E-3,1.047992587E0,1.275899172E0,1.651123476E0
3.626335429E0,-3.478613123E-2,1.082811832E0,1.297890306E0,1.690624377E0
3.628780377E0,-6.777282804E-2,1.127405047E0,1.315605402E0,1.733912590E0
3.631224543E0,-9.770520031E-2,1.169554710E0,1.327822685E0,1.772150561E0
3.633669491E0,-1.160311401E-1,1.208039165E0,1.335152984E0,1.804288042E0
3.636115220E0,-1.258049607E-1,1.237360597E0,1.336985588E0,1.826039046E0
3.638560168E0,-1.288592964E-1,1.266682148E0,1.336985588E0,1.846244525E0
3.641004335E0,-1.276375651E-1,1.296614528E0,1.334542155E0,1.865074622E0
3.643449283E0,-1.209180579E-1,1.328990340E0,1.329044342E0,1.883399948E0
3.645895064E0,-1.148094088E-1,1.367474794E0,1.324157476E0,1.906977068E0
3.648340012E0,-1.148094088E-1,1.410235405E0,1.318048835E0,1.933700553E0
3.650784179E0,-1.148094088E-1,1.456050277E0,1.310107589E0,1.962051351E0
3.653229127E0,-1.190854609E-1,1.501865029E0,1.302166343E0,1.991335506E0
3.655674856E0,-1.264158338E-1,1.542182088E0,1.289949059E0,2.014516104E0
3.658119804E0,-1.398548633E-1,1.577612281E0,1.279564381E0,2.036100414E0
3.660563970E0,-1.539047509E-1,1.603268623E0,1.264292717E0,2.047582239E0
3.663008918E0,-1.685654968E-1,1.617929339E0,1.249632001E0,2.051265417E0
3.665454700E0,-1.881131679E-1,1.621594548E0,1.231916904E0,2.045134397E0
3.667899648E0,-2.070499808E-1,1.612431645E0,1.216034412E0,2.030158909E0
3.670343814E0,-2.265976518E-1,1.591051340E0,1.198319316E0,2.004684525E0
3.672788762E0,-2.461453229E-1,1.559897184E0,1.181825995E0,1.972455178E0
3.675234491E0,-2.614169419E-1,1.517136693E0,1.165943503E0,1.931182750E0
3.677679439E0,-2.718016505E-1,1.459715366E0,1.150671840E0,1.878480974E0
3.680123606E0,-2.779102921E-1,1.390687704E0,1.140287161E0,1.819753068E0
3.682568554E0,-2.803537548E-1,1.314329624E0,1.135400295E0,1.759316464E0
3.685014335E0,-2.846298218E-1,1.236749768E0,1.136621952E0,1.703664752E0
3.687459283E0,-2.950145006E-1,1.169554710E0,1.141508937E0,1.660702992E0
3.689903450E0,-3.182273805E-1,1.120685458E0,1.148228407E0,1.635736237E0
3.692348398E0,-3.506031930E-1,1.079757571E0,1.154947877E0,1.619476338E0
3.694794127E0,-3.866442144E-1,1.038829565E0,1.158002257E0,1.603006501E0
3.697239075E0,-4.239069521E-1,9.832409620E-1,1.156169653E0,1.575813491E0
3.699683241E0,-4.587262571E-1,9.093263149E-1,1.147006750E0,1.533925882E0
3.702128189E0,-4.898803532E-1,8.183074594E-1,1.129902482E0,1.478610658E0
3.704573970E0,-5.161475539E-1,7.144604325E-1,1.110965729E0,1.418134993E0
3.707018918E0,-5.387495160E-1,6.063373685E-1,1.082865953E0,1.352957767E0
3.709463085E0,-5.589080453E-1,5.006577969E-1,1.055377007E0,1.294935156E0
3.711908033E0,-5.723471045E-1,3.986433446E-1,1.024222851E0,1.239165111E0
3.714353762E0,-5.784557462E-1,3.015158772E-1,9.949014783E-1,1.189685600E0
3.716798710E0,-5.796774626E-1,2.117187679E-1,9.686343074E-1,1.148522189E0
3.719242877E0,-5.723471045E-1,1.176456064E-1,9.472540617E-1,1.112974373E0
3.721687825E0,-5.527994037E-1,1.807465218E-2,9.277063608E-1,1.080070815E0
3.724133606E0,-5.301974416E-1,-8.088542521E-2,9.118238688E-1,1.057863198E0
3.726578554E0,-5.155366659E-1,-1.633521765E-1,8.977739811E-1,1.048074477E0
3.729022720E0,-5.308082700E-1,-1.975605935E-1,8.831132650E-1,1.049131377E0
3.731467668E0,-5.705145001E-1,-1.945062727E-1,8.605112433E-1,1.050618430E0
3.733913398E0,-5.967816710E-1,-2.146648020E-1,8.269137144E-1,1.042120737E0
3.736358345E0,-6.071664095E-1,-2.623122633E-1,7.810988426E-1,1.023510710E0
3.738802512E0,-6.114424467E-1,-3.099597096E-1,7.242884040E-1,9.972615401E-1
3.741247460E0,-6.053338051E-1,-3.514985144E-1,6.589258909E-1,9.613342556E-1
3.743693241E0,-5.870078206E-1,-3.808200359E-1,5.850112438E-1,9.120527598E-1
3.746138189E0,-5.582972169E-1,-3.942590654E-1,5.062097311E-1,8.505200085E-1
3.748582356E0,-5.198127031E-1,-3.826526105E-1,4.261864126E-1,7.734747087E-1
3.751027304E0,-4.758304656E-1,-3.423355520E-1,3.467739820E-1,6.810730186E-1
3.753473033E0,-4.275721610E-1,-2.769730091E-1,2.685832977E-1,5.759071005E-1
3.755917981E0,-3.768703938E-1,-1.914519519E-1,1.983338892E-1,4.669276980E-1
3.758362148E0,-3.237251639E-1,-9.676791728E-2,1.311387420E-1,3.624353476E-1
3.760807095E0,-2.687473297E-1,-1.473019365E-3,7.371747494E-2,2.786782430E-1
3.763252877E0,-2.131586224E-1,8.832409978E-2,2.179397084E-2,2.317600528E-1
3.765697825E0,-1.575699300E-1,1.671256423E-1,-2.402088419E-2,2.309464570E-1
3.768141991E0,-1.025921181E-1,2.288229913E-1,-6.494882703E-2,2.590433442E-1
3.770586939E0,-5.189034343E-2,2.721943557E-1,-9.976811707E-2,2.945098508E-1
3.773032668E0,-5.464624614E-3,2.972398102E-1,-1.309221983E-1,3.248414827E-1
3.775477616E0,3.424158320E-2,3.070136607E-1,-1.571893841E-1,3.466098330E-1
3.777921783E0,6.661741436E-2,3.039593399E-1,-1.804022491E-1,3.596861572E-1
3.780366731E0,9.227373451E-2,2.911311686E-1,-2.036150992E-1,3.670570910E-1
3.782812512E0,1.130431294E-1,2.654748559E-1,-2.292714268E-1,3.685390554E-1
3.785257460E0,1.325908154E-1,2.330990285E-1,-2.530951500E-1,3.687446764E-1
3.787701627E0,1.448080987E-1,1.982797384E-1,-2.793623507E-1,3.719241362E-1
3.790146575E0,1.558036655E-1,1.652930528E-1,-3.080729842E-1,3.827604200E-1
3.792592304E0,1.649666429E-1,1.329172254E-1,-3.355619013E-1,3.968409904E-1
3.795037252E0,1.729078740E-1,1.023739874E-1,-3.667159975E-1,4.181604823E-1
3.797481418E0,1.820708513E-1,7.121989131E-2,-3.990918398E-1,4.444056305E-1
3.799926366E0,1.942881495E-1,4.250924289E-2,-4.314676523E-1,4.750992062E-1
3.802372148E0,2.071163058E-1,1.440946572E-2,-4.656760693E-1,5.098617443E-1
3.804817095E0,2.193336040E-1,-1.307944767E-2,-5.041605234E-1,5.499601214E-1
3.807261262E0,2.321617603E-1,-3.995749727E-2,-5.438667536E-1,5.926944661E-1
3.809706210E0,2.431573272E-1,-6.866813451E-2,-5.872381330E-1,6.392882161E-1
3.812151939E0,2.535420060E-1,-9.982223809E-2,-6.361073256E-1,6.920119635E-1
3.814596887E0,2.596506476E-1,-1.309763342E-1,-6.886416674E-1,7.475296683E-1
3.817041054E0,2.590397894E-1,-1.584652513E-1,-7.442303896E-1,8.037983088E-1
3.819486002E0,2.572071850E-1,-1.938954145E-1,-8.047059774E-1,8.667771789E-1
3.821931783E0,2.614832520E-1,-2.494840920E-1,-8.688467741E-1,9.410156854E-1
3.824376731E0,2.730896771E-1,-3.154574931E-1,-9.329875708E-1,1.022035816E0
3.826820898E0,2.883613110E-1,-3.820417523E-1,-9.891871214E-1,1.098908234E0
3.829265845E0,3.060763776E-1,-4.376304448E-1,-1.035002112E0,1.164659834E0
3.831711575E0,3.213479817E-1,-4.608432949E-1,-1.066156149E0,1.205126550E0
3.834156523E0,3.329544365E-1,-4.516803324E-1,-1.092423320E0,1.228113386E0
3.836600689E0,3.500586450E-1,-4.272457361E-1,-1.109527588E0,1.239407698E0
3.839045637E0,3.781584203E-1,-3.997568190E-1,-1.122355700E0,1.249996649E0
3.841491418E0,4.154211581E-1,-3.686027229E-1,-1.129686117E0,1.258822239E0
3.843936366E0,4.581816792E-1,-3.270639181E-1,-1.132129550E0,1.264364890E0
3.846380533E0,5.039965510E-1,-2.739186883E-1,-1.131518722E0,1.268612860E0
3.848825481E0,5.522548556E-1,-2.171082646E-1,-1.124188304E0,1.271188722E0
3.851271210E0,6.011240482E-1,-1.572435200E-1,-1.113803625E0,1.275395688E0
3.853716158E0,6.487714648E-1,-9.737877548E-2,-1.099753737E0,1.280564455E0
3.856160325E0,6.927537322E-1,-3.934663162E-2,-1.079595208E0,1.283347850E0
3.858605273E0,7.312382460E-1,1.013340987E-2,-1.053938866E0,1.282809102E0
3.861051054E0,7.648357749E-1,4.617442936E-2,-1.025839090E0,1.280410747E0
3.863496002E0,7.923247218E-1,6.938728690E-2,-9.952958226E-1,1.274051347E0
3.865940168E0,8.124832511E-1,7.793939114E-2,-9.665850997E-1,1.265104872E0
3.868385116E0,8.234788179E-1,7.549594343E-2,-9.427614212E-1,1.254039911E0
3.870830845E0,8.271439672E-1,6.083518267E-2,-9.232137203E-1,1.241044574E0
3.873275793E0,8.204244971E-1,3.090281226E-2,-9.116073251E-1,1.226816716E0
3.875719960E0,8.069854379E-1,-1.491204090E-2,-9.067203999E-1,1.213915050E0
3.878164908E0,7.917138338E-1,-7.783110440E-2,-9.079421163E-1,1.207156726E0
3.880610689E0,7.697227001E-1,-1.566326618E-1,-9.134398699E-1,1.204732012E0
3.883055637E0,7.513967752E-1,-2.525384426E-1,-9.244354367E-1,1.217765846E0
3.885499804E0,7.306273580E-1,-3.624940813E-1,-9.360418916E-1,1.241528380E0
3.887944752E0,7.098579407E-1,-4.785583913E-1,-9.525352120E-1,1.280718455E0
3.890390481E0,6.805364490E-1,-5.811836123E-1,-9.726938009E-1,1.321755454E0
3.892835429E0,6.420519948E-1,-6.630395055E-1,-9.940740466E-1,1.356479030E0
3.895279595E0,5.944045186E-1,-7.320672274E-1,-1.016676188E0,1.386675747E0
3.897724543E0,5.510331392E-1,-7.962080240E-1,-1.041110754E0,1.421793354E0
3.900170325E0,5.149921179E-1,-8.640139699E-1,-1.067377925E0,1.466639920E0
3.902615273E0,4.875032008E-1,-9.360960126E-1,-1.086925626E0,1.515038756E0
3.905059439E0,4.691772461E-1,-1.006345510E0,-1.101586342E0,1.564081533E0
3.907504387E0,4.575708210E-1,-1.066821098E0,-1.110138416E0,1.606202234E0
3.909950116E0,4.471861124E-1,-1.110803366E0,-1.110138416E0,1.632870736E0
3.912395064E0,4.386340082E-1,-1.133405328E0,-1.104029775E0,1.641916311E0
3.914839231E0,4.294710457E-1,-1.139513969E0,-1.089979887E0,1.634317478E0
3.917284179E0,4.258058667E-1,-1.137070537E0,-1.075319171E0,1.621897457E0
3.919729960E0,4.221406579E-1,-1.122409821E0,-1.060047507E0,1.600533429E0
3.922174908E0,4.203080833E-1,-1.098586082E0,-1.045386791E0,1.573653014E0
3.924619075E0,4.233624041E-1,-1.067431927E0,-1.030115128E0,1.542654796E0
3.927064023E0,4.258058667E-1,-1.023449659E0,-1.016065240E0,1.503711546E0
3.929509752E0,4.319145083E-1,-9.721370339E-1,-9.983500838E-1,1.458870606E0
3.931954700E0,4.441317916E-1,-9.153266549E-1,-9.769698381E-1,1.410512672E0
3.934398866E0,4.581816792E-1,-8.450771570E-1,-9.531461000E-1,1.353725726E0
3.936843814E0,4.777293503E-1,-7.705516815E-1,-9.244354367E-1,1.294818946E0
3.939289595E0,5.088834763E-1,-6.990805268E-1,-8.871726990E-1,1.238850828E0
3.941734543E0,5.443136096E-1,-6.282202005E-1,-8.431904316E-1,1.184021972E0
3.944178710E0,5.754677057E-1,-5.408665538E-1,-7.937104106E-1,1.119676706E0
3.946623658E0,5.992914438E-1,-4.303000569E-1,-7.368999720E-1,1.042751141E0
3.949069387E0,6.133413315E-1,-3.007967472E-1,-6.770352721E-1,9.617915740E-1
3.951514335E0,6.225042939E-1,-1.645738930E-1,-6.159487963E-1,8.910606499E-1
3.953958502E0,6.286129355E-1,-4.362268373E-2,-5.548623204E-1,8.396007122E-1
3.956403450E0,6.341107488E-1,5.228307843E-2,-4.962193072E-1,8.068850989E-1
3.958849231E0,6.414411068E-1,1.127586812E-1,-4.375762939E-1,7.846236210E-1
3.961294179E0,6.487714648E-1,1.402475983E-1,-3.771007061E-1,7.633994662E-1
3.963738345E0,6.506040692E-1,1.445236504E-1,-3.196794093E-1,7.391668723E-1
3.966183293E0,6.432737112E-1,1.371932775E-1,-2.604255378E-1,7.074210371E-1
3.968629023E0,6.231151819E-1,1.304737628E-1,-2.030042410E-1,6.682115343E-1
3.971073970E0,5.931828022E-1,1.274194419E-1,-1.486372799E-1,6.246555787E-1
3.973518137E0,5.510331392E-1,1.304737628E-1,-9.549206495E-2,5.742644493E-1
3.975963085E0,5.039965510E-1,1.378041357E-1,-4.967720062E-2,5.248526722E-1
3.978408866E0,4.581816792E-1,1.408584565E-1,-1.302531920E-2,4.795218607E-1
3.980853814E0,4.141994417E-1,1.365824044E-1,1.690705307E-2,4.364650949E-1
3.983297981E0,3.757149577E-1,1.261977106E-1,3.767645359E-2,3.981295101E-1
3.985742929E0,3.451717198E-1,1.121478230E-1,4.683942348E-2,3.659434136E-1
3.988188658E0,3.164610863E-1,1.048174351E-1,4.867202044E-2,3.369024776E-1
3.990633606E0,2.908047438E-1,1.078717709E-1,4.561769590E-2,3.135038949E-1
3.993077773E0,2.682027519E-1,1.182564646E-1,3.889818490E-2,2.956862802E-1
3.995522720E0,2.504876852E-1,1.426910609E-1,2.668088861E-2,2.895111209E-1
3.997968502E0,2.376595438E-1,1.836189926E-1,1.324186474E-2,3.006215896E-1
4.000413450E0,2.272748351E-1,2.392076701E-1,-2.029754221E-3,3.299670893E-1
4.002857616E0,2.266639769E-1,3.039593399E-1,-1.791223697E-2,3.795901565E-1
4.005302564E0,2.339943498E-1,3.790956736E-1,-3.318385407E-2,4.467304038E-1
4.007748293E0,2.541528642E-1,4.597298205E-1,-4.784460738E-2,5.274791870E-1
4.010193241E0,2.804200649E-1,5.470834970E-1,-5.822930858E-2,6.175163301E-1
4.012637408E0,3.170719445E-1,6.442109942E-1,-6.494882703E-2,7.209443621E-1
4.015082356E0,3.598324656E-1,7.523340583E-1,-6.800314784E-2,8.367259807E-1
4.017528137E0,4.050364494E-1,8.738961220E-1,-6.372709572E-2,9.653031131E-1
4.019973085E0,4.539056420E-1,1.003399491E0,-5.395325273E-2,1.102611366E0
4.022417252E0,5.021639466E-1,1.144509196E0,-3.807077184E-2,1.250407659E0
4.024862200E0,5.467571020E-1,1.291727662E0,-1.607964188E-2,1.402769488E0
4.027307929E0,5.901284814E-1,1.443832874E0,1.202013530E-2,1.559823540E0
4.029752877E0,6.304455400E-1,1.583110094E0,4.378510267E-2,1.704586837E0
4.032197043E0,6.695408821E-1,1.701007009E0,8.288043737E-2,1.829912294E0
4.034641991E0,7.074145079E-1,1.791414976E0,1.268626899E-1,1.930206477E0
4.037087773E0,7.385686040E-1,1.862275243E0,1.763427556E-1,2.011131381E0
4.039532720E0,7.617814541E-1,1.916642189E0,2.313205749E-1,2.075412603E0
4.041976887E0,7.727770209E-1,1.956959248E0,2.893527150E-1,2.123817039E0
4.044421835E0,7.703335881E-1,1.991778612E0,3.516609073E-1,2.164315428E0
4.046867564E0,7.513967752E-1,2.019267559E0,4.139691293E-1,2.193948274E0
4.049312512E0,7.239078283E-1,2.038815260E0,4.762773216E-1,2.215321714E0
4.051756679E0,6.878668070E-1,2.044923782E0,5.349203348E-1,2.222839127E0
4.054201627E0,6.457171440E-1,2.038204193E0,5.917307734E-1,2.218416614E0
