"Time (s)","Gyroscope x (rad/s)","Gyroscope y (rad/s)","Gyroscope z (rad/s)","Absolute (rad/s)"
1.213527610E-1,1.258713007E-1,-2.378776670E-1,5.477485061E-1,6.102932039E-1
1.237969280E-1,1.173191816E-1,-2.427645773E-1,5.367529392E-1,6.006680848E-1
1.262419280E-1,1.277038902E-1,-2.397102565E-1,5.288116932E-1,5.944838917E-1
1.286876570E-1,1.167083159E-1,-2.507058382E-1,5.196487308E-1,5.886501947E-1
1.311326570E-1,1.258713007E-1,-2.488732338E-1,5.129292011E-1,5.838474426E-1
1.335768240E-1,1.191517785E-1,-2.586470842E-1,5.049880147E-1,5.797485278E-1
1.360217720E-1,1.228169575E-1,-2.610905468E-1,4.994901717E-1,5.768385479E-1
1.384675530E-1,1.197626442E-1,-2.708643675E-1,4.952141345E-1,5.770161484E-1
1.409125010E-1,1.130431294E-1,-2.769730091E-1,4.891054630E-1,5.733384261E-1
1.433566670E-1,1.154865921E-1,-2.824707925E-1,4.860511422E-1,5.739099358E-1
1.458016150E-1,1.014367044E-1,-2.934663594E-1,4.811642468E-1,5.726525487E-1
1.482473970E-1,1.063236222E-1,-2.983532846E-1,4.787207842E-1,5.740147945E-1
1.506923450E-1,8.738680929E-2,-3.148466349E-1,4.738338590E-1,5.755722229E-1
1.531365110E-1,8.983027190E-2,-3.191227019E-1,4.707795382E-1,5.757969696E-1
1.555814590E-1,7.394778728E-2,-3.356160223E-1,4.652817547E-1,5.784405769E-1
1.580272400E-1,6.845000386E-2,-3.441681564E-1,4.591731131E-1,5.779074932E-1
1.604721880E-1,5.501098186E-2,-3.600506186E-1,4.542861879E-1,5.822702093E-1
1.629163550E-1,4.279368743E-2,-3.747113645E-1,4.475666881E-1,5.852827066E-1
1.653613550E-1,3.729590774E-2,-3.887612820E-1,4.390145838E-1,5.875883967E-1
1.678070840E-1,1.652650535E-2,-4.064763486E-1,4.286298752E-1,5.909481511E-1
1.702520840E-1,1.774823293E-2,-4.156393111E-1,4.194668829E-1,5.907821109E-1
1.726962510E-1,-4.853759892E-3,-4.351869822E-1,4.066387415E-1,5.956226444E-1
1.751411990E-1,-5.464624614E-3,-4.376304448E-1,3.968648911E-1,5.908062373E-1
1.775869800E-1,-2.317970246E-2,-4.510694742E-1,3.822041452E-1,5.916764131E-1
1.800319280E-1,-2.623402700E-2,-4.510694742E-1,3.675433993E-1,5.824431690E-1
1.824760950E-1,-3.539699689E-2,-4.583998322E-1,3.541043699E-1,5.803216852E-1
1.849210420E-1,-4.333823919E-2,-4.559563994E-1,3.370001614E-1,5.686330539E-1
1.873668240E-1,-4.089477658E-2,-4.529020488E-1,3.241719902E-1,5.584622886E-1
1.898117720E-1,-5.250120908E-2,-4.492368698E-1,3.052352071E-1,5.456543538E-1
1.922559380E-1,-4.394910112E-2,-4.345761240E-1,2.911853194E-1,5.249541135E-1
1.947008860E-1,-5.555552989E-2,-4.290783405E-1,2.734702229E-1,5.118404068E-1
1.971466670E-1,-4.578169435E-2,-4.058654904E-1,2.594203353E-1,4.838612097E-1
1.995916150E-1,-5.005775020E-2,-3.936481774E-1,2.435378730E-1,4.655914105E-1
2.020357820E-1,-4.272737354E-2,-3.667701483E-1,2.300988436E-1,4.350763702E-1
2.044807820E-1,-4.333823919E-2,-3.478333354E-1,2.166598290E-1,4.120773152E-1
2.069265110E-1,-4.028391466E-2,-3.221770227E-1,2.026099414E-1,3.827161038E-1
2.093715110E-1,-2.867748588E-2,-2.977424264E-1,1.922252327E-1,3.555608116E-1
2.118156780E-1,-3.478613123E-2,-2.739186883E-1,1.806188077E-1,3.299464751E-1
2.142606260E-1,-2.012537792E-2,-2.427645773E-1,1.720667034E-1,2.982392014E-1
2.167063550E-1,-2.867748588E-2,-2.250495106E-1,1.616819948E-1,2.785870562E-1
2.191513550E-1,-1.401673071E-2,-1.932845414E-1,1.549624950E-1,2.481305252E-1
2.215955220E-1,-1.951451227E-2,-1.792346537E-1,1.482429802E-1,2.334134925E-1
2.240404700E-1,-1.157327183E-2,-1.511348784E-1,1.427451968E-1,2.082111508E-1
2.264862510E-1,-1.279500127E-2,-1.352523863E-1,1.366365403E-1,1.926822883E-1
2.289311990E-1,-1.340586599E-2,-1.157047153E-1,1.329713613E-1,1.767729654E-1
2.313753650E-1,-5.464624614E-3,-1.028765589E-1,1.305278838E-1,1.662858290E-1
2.338203130E-1,-1.584932581E-2,-9.127013385E-2,1.244192421E-1,1.551179754E-1
2.362660950E-1,-3.632030450E-3,-7.783110440E-2,1.225866526E-1,1.452527448E-1
2.387110420E-1,-1.768191904E-2,-7.355505228E-2,1.201431900E-1,1.419766956E-1
2.411552090E-1,-1.096240710E-2,-6.011603400E-2,1.183106005E-1,1.331597165E-1
2.436002090E-1,-2.623402700E-2,-6.439208239E-2,1.134236753E-1,1.330394474E-1
2.460459380E-1,-2.684488893E-2,-5.706170946E-2,1.097584814E-1,1.265844026E-1
2.484908860E-1,-3.661872447E-2,-6.500294805E-2,1.060933024E-1,1.297000503E-1
2.509351050E-1,-4.761429131E-2,-6.927900016E-2,9.937378764E-2,1.301608631E-1
2.533800530E-1,-5.189034343E-2,-8.027456701E-2,9.326514602E-2,1.335477492E-1
2.558257820E-1,-7.510320097E-2,-9.615704417E-2,8.532389998E-2,1.488853111E-1
2.582707820E-1,-7.632493228E-2,-1.077634841E-1,7.555006444E-2,1.521390023E-1
2.607149490E-1,-1.019812524E-1,-1.315872073E-1,6.211104244E-2,1.776883524E-1
2.631598970E-1,-1.056464389E-1,-1.444153637E-1,5.233720690E-2,1.864300151E-1
2.656056780E-1,-1.313027442E-1,-1.682390869E-1,3.828731924E-2,2.168195558E-1
2.680506260E-1,-1.380222589E-1,-1.822889745E-1,2.423742972E-2,2.299279608E-1
2.704947920E-1,-1.557373405E-1,-2.030583769E-1,8.354946971E-3,2.560402874E-1
2.729397400E-1,-1.716198176E-1,-2.134430856E-1,-6.916671991E-3,2.739692554E-1
2.753855220E-1,-1.795610636E-1,-2.250495106E-1,-2.157742530E-2,2.887127345E-1
2.778304700E-1,-2.015521973E-1,-2.348233461E-1,-3.868163377E-2,3.118678581E-1
2.802746360E-1,-2.021630555E-1,-2.329907566E-1,-5.150979385E-2,3.127424700E-1
2.827196360E-1,-2.253759205E-1,-2.415428609E-1,-6.678141654E-2,3.370415654E-1
2.851653650E-1,-2.210998684E-1,-2.348233461E-1,-7.777698338E-2,3.317776588E-1
2.876103650E-1,-2.394258082E-1,-2.360450774E-1,-9.060513973E-2,3.482115558E-1
2.900544800E-1,-2.375932187E-1,-2.213843167E-1,-1.022115648E-1,3.404537519E-1
2.924994800E-1,-2.461453229E-1,-2.152756751E-1,-1.101528108E-1,3.450576445E-1
2.949452090E-1,-2.516431212E-1,-2.000040561E-1,-1.199266464E-1,3.430864081E-1
2.973902090E-1,-2.479779124E-1,-1.847324371E-1,-1.242026985E-1,3.332347951E-1
2.998343760E-1,-2.583626211E-1,-1.670173556E-1,-1.315330714E-1,3.345848022E-1
3.022793240E-1,-2.485887855E-1,-1.438044906E-1,-1.345873922E-1,3.171590799E-1
3.047251050E-1,-2.601952255E-1,-1.279220134E-1,-1.388634443E-1,3.214788532E-1
3.071700530E-1,-2.498105019E-1,-1.004330963E-1,-1.388634443E-1,3.029441366E-1
3.096142200E-1,-2.577517629E-1,-8.699408174E-2,-1.431394964E-1,3.073969046E-1
3.120591670E-1,-2.473670393E-1,-6.011603400E-2,-1.413069069E-1,2.911563697E-1
3.145049490E-1,-2.498105019E-1,-4.362268373E-2,-1.400851756E-1,2.897103413E-1
3.169498970E-1,-2.473670393E-1,-2.224241756E-2,-1.394743025E-1,2.848477810E-1
3.193940630E-1,-2.388149351E-1,-2.694746945E-3,-1.382525712E-1,2.759594324E-1
3.218390630E-1,-2.449235916E-1,1.502032764E-2,-1.370308548E-1,2.810527195E-1
3.242847920E-1,-2.314845622E-1,3.640059382E-2,-1.333656609E-1,2.696228945E-1
3.267297400E-1,-2.412583977E-1,5.167221278E-2,-1.321439296E-1,2.798886389E-1
3.291739070E-1,-2.284302413E-1,7.488507032E-2,-1.315330714E-1,2.740239000E-1
3.316189070E-1,-2.375932187E-1,8.404804766E-2,-1.303113401E-1,2.837175660E-1
3.340646360E-1,-2.296519727E-1,1.035957187E-1,-1.284787357E-1,2.828053872E-1
3.365096360E-1,-2.333171517E-1,1.090935022E-1,-1.278678775E-1,2.875560460E-1
3.389538030E-1,-2.351497561E-1,1.200890541E-1,-1.284787357E-1,2.936385094E-1
3.413987510E-1,-2.327062935E-1,1.274194419E-1,-1.278678775E-1,2.945133737E-1
3.438445320E-1,-2.412583977E-1,1.310846210E-1,-1.284787357E-1,3.031428340E-1
3.462894800E-1,-2.327062935E-1,1.390258670E-1,-1.266461462E-1,2.991983574E-1
3.487336470E-1,-2.516431212E-1,1.390258670E-1,-1.284787357E-1,3.148955981E-1
3.511785950E-1,-2.437018603E-1,1.487997025E-1,-1.278678775E-1,3.128612189E-1
3.536243760E-1,-2.608060837E-1,1.469671130E-1,-1.272570193E-1,3.252898624E-1
3.560693240E-1,-2.595843673E-1,1.561300755E-1,-1.254244149E-1,3.278596164E-1
3.585134900E-1,-2.705799341E-1,1.524648964E-1,-1.223700941E-1,3.338165444E-1
3.609584900E-1,-2.772994339E-1,1.573518068E-1,-1.199266464E-1,3.406419934E-1
3.634042200E-1,-2.803537548E-1,1.604061276E-1,-1.144288629E-1,3.426694008E-1
3.658491670E-1,-2.968471050E-1,1.604061276E-1,-1.101528108E-1,3.549393910E-1
3.682933860E-1,-2.937927842E-1,1.634604484E-1,-1.028224379E-1,3.515764099E-1
3.707383340E-1,-3.127295971E-1,1.567409486E-1,-9.610292315E-2,3.627716881E-1
3.731840630E-1,-3.090643883E-1,1.591843963E-1,-8.816167712E-2,3.586543593E-1
3.756290630E-1,-3.273903430E-1,1.481888443E-1,-8.022044599E-2,3.682114748E-1
3.780732300E-1,-3.267794847E-1,1.475779712E-1,-7.289005816E-2,3.658921287E-1
3.805181780E-1,-3.377750516E-1,1.365824044E-1,-6.372709572E-2,3.698754944E-1
3.829639590E-1,-3.444945514E-1,1.310846210E-1,-5.639671162E-2,3.728810305E-1
3.854089070E-1,-3.487706184E-1,1.206999272E-1,-4.662287608E-2,3.719988028E-1
3.878530740E-1,-3.634313643E-1,1.084826291E-1,-3.807077184E-2,3.811826610E-1
3.902980220E-1,-3.615987599E-1,1.011522561E-1,-2.768607065E-2,3.764996156E-1
3.927438030E-1,-3.817572892E-1,8.588063717E-2,-1.852310263E-2,3.917361574E-1
3.951887510E-1,-3.780921102E-1,8.221544325E-2,-8.138401434E-3,3.870132510E-1
3.976329170E-1,-3.976397812E-1,6.633296609E-2,4.078893457E-3,4.031551753E-1
4.000779170E-1,-3.988615274E-1,6.511123478E-2,1.507445797E-2,4.044220942E-1
4.025236470E-1,-4.092462063E-1,5.472653359E-2,2.973521128E-2,4.139584926E-1
4.049685950E-1,-4.177983105E-1,5.594826490E-2,4.378510267E-2,4.237956723E-1
4.074127610E-1,-4.226852357E-1,5.472653359E-2,5.844585598E-2,4.302019527E-1
4.098577610E-1,-4.361242652E-1,5.655913055E-2,7.432833314E-2,4.460134651E-1
4.123034900E-1,-4.312373400E-1,6.938728690E-2,9.204341471E-2,4.463767794E-1
4.147484900E-1,-4.471198320E-1,7.855026424E-2,1.085367650E-1,4.667617353E-1
4.171926570E-1,-4.422329068E-1,1.035957187E-1,1.311387420E-1,4.727572172E-1
4.196376050E-1,-4.575045109E-1,1.219216585E-1,1.525190324E-1,4.974307223E-1
4.220833860E-1,-4.513958693E-1,1.573518068E-1,1.745101660E-1,5.088925426E-1
4.245283340E-1,-4.581153989E-1,1.830081195E-1,1.989447474E-1,5.319217076E-1
4.269725010E-1,-4.544501901E-1,2.208817452E-1,2.239902020E-1,5.527072744E-1
4.294174490E-1,-4.471198320E-1,2.526466846E-1,2.496465296E-1,5.710252894E-1
4.318632300E-1,-4.471198320E-1,2.862442434E-1,2.728593647E-1,5.969121744E-1
4.343081780E-1,-4.300156236E-1,3.253395855E-1,3.003482819E-1,6.172263546E-1
4.367523450E-1,-4.336808026E-1,3.595480025E-1,3.235611320E-1,6.496503758E-1
4.391973450E-1,-4.110788107E-1,4.029194117E-1,3.498283327E-1,6.735797675E-1
4.416430740E-1,-4.110788107E-1,4.334626496E-1,3.724303246E-1,7.039744341E-1
4.440880220E-1,-3.933637440E-1,4.762232006E-1,3.956431746E-1,7.335237512E-1
4.465322400E-1,-3.896985352E-1,5.079881549E-1,4.158017039E-1,7.634186079E-1
4.489771880E-1,-3.780921102E-1,5.476943851E-1,4.347385168E-1,7.949341867E-1
4.514229170E-1,-3.701508641E-1,5.837354064E-1,4.536753297E-1,8.267889644E-1
4.538679170E-1,-3.744269311E-1,6.228307486E-1,4.677252173E-1,8.642225102E-1
4.563120840E-1,-3.664856851E-1,6.662021279E-1,4.829968214E-1,9.007901876E-1
4.587570320E-1,-3.805355728E-1,6.997997165E-1,4.915489256E-1,9.360274096E-1
4.612028130E-1,-3.707617223E-1,7.376732826E-1,4.988793135E-1,9.646277500E-1
4.636477610E-1,-3.854224980E-1,7.584426999E-1,5.043771267E-1,9.890308979E-1
4.660919280E-1,-3.756486475E-1,7.853207588E-1,5.068205595E-1,1.007326998E0
4.685368760E-1,-3.768703938E-1,7.950946093E-1,5.062097311E-1,1.015113306E0
4.709826570E-1,-3.695400059E-1,8.134205341E-1,5.074314475E-1,1.027472362E0
4.734276050E-1,-3.597661853E-1,8.256378174E-1,5.110966563E-1,1.035533344E0
4.758717720E-1,-3.585444391E-1,8.390768766E-1,5.117074847E-1,1.046159008E0
4.783167720E-1,-3.444945514E-1,8.598462343E-1,5.165944099E-1,1.060604463E0
4.807625010E-1,-3.530466557E-1,8.769504428E-1,5.190379024E-1,1.078463891E0
4.832075010E-1,-3.396076262E-1,9.050502181E-1,5.257573724E-1,1.100395407E0
4.856516670E-1,-3.518249393E-1,9.252088070E-1,5.306442976E-1,1.123109743E0
4.880966150E-1,-3.475488722E-1,9.575846195E-1,5.379746556E-1,1.152030925E0
4.905423450E-1,-3.591552973E-1,9.765213728E-1,5.465267897E-1,1.175277861E0
4.929873450E-1,-3.646530807E-1,1.002788544E0,5.550789237E-1,1.202775683E0
4.954315110E-1,-3.732051849E-1,1.014394999E0,5.636309981E-1,1.218999272E0
4.978764590E-1,-3.866442144E-1,1.021114588E0,5.727939606E-1,1.232988918E0
5.003222400E-1,-3.848116100E-1,1.021725416E0,5.813460946E-1,1.236917977E0
5.027671880E-1,-4.000832438E-1,1.006453753E0,5.862330198E-1,1.231537621E0
5.052113550E-1,-3.933637440E-1,9.948472977E-1,5.966176987E-1,1.224911776E0
5.076563030E-1,-4.123005271E-1,9.667475820E-1,6.039480567E-1,1.212165775E0
5.101020840E-1,-4.129114151E-1,9.490324855E-1,6.125001907E-1,1.202628363E0
5.125470320E-1,-4.300156236E-1,9.160457850E-1,6.179979444E-1,1.185738072E0
5.149911990E-1,-4.391785860E-1,8.873351812E-1,6.234957576E-1,1.170037826E0
5.174361990E-1,-4.501741529E-1,8.445746303E-1,6.289935112E-1,1.145249279E0
5.198819280E-1,-4.703326821E-1,8.012032509E-1,6.314370036E-1,1.123321935E0
5.223269280E-1,-4.776630700E-1,7.572209835E-1,6.332696080E-1,1.096620273E0
5.247710950E-1,-5.075954199E-1,7.034648657E-1,6.326587200E-1,1.073672661E0
5.272160420E-1,-5.161475539E-1,6.594825983E-1,6.332696080E-1,1.049931422E0
5.296618240E-1,-5.503559709E-1,6.026722193E-1,6.314370036E-1,1.031900280E0
5.321067720E-1,-5.644058585E-1,5.586899519E-1,6.277717948E-1,1.012317076E0
5.345509380E-1,-5.937273502E-1,5.018795133E-1,6.198305488E-1,9.942761797E-1
5.369958860E-1,-6.151075959E-1,4.597298205E-1,6.137219071E-1,9.830378638E-1
5.394416670E-1,-6.401530504E-1,4.133041203E-1,6.063915491E-1,9.738207919E-1
5.418866150E-1,-6.688637137E-1,3.723761737E-1,5.972285867E-1,9.709400945E-1
5.443307820E-1,-6.823027134E-1,3.406112194E-1,5.880655646E-1,9.630026499E-1
5.467757300E-1,-7.159003019E-1,3.070136607E-1,5.764591694E-1,9.690592366E-1
5.492215110E-1,-7.226198316E-1,2.868551016E-1,5.685179234E-1,9.631603706E-1
5.516664590E-1,-7.488870025E-1,2.569227517E-1,5.575223565E-1,9.683347669E-1
5.541106260E-1,-7.519413233E-1,2.440945953E-1,5.501919985E-1,9.631765987E-1
5.565556260E-1,-7.653803229E-1,2.214926034E-1,5.416398644E-1,9.634519993E-1
5.590013550E-1,-7.666020989E-1,2.086644471E-1,5.355312228E-1,9.581301165E-1
5.614463550E-1,-7.641586065E-1,1.885059029E-1,5.312551856E-1,9.495814465E-1
5.638905220E-1,-7.659912109E-1,1.689582318E-1,5.269790888E-1,9.449848567E-1
5.663354700E-1,-7.494978905E-1,1.487997025E-1,5.245356560E-1,9.268366057E-1
5.687812510E-1,-7.513304353E-1,1.237542480E-1,5.220922232E-1,9.232512260E-1
5.712261990E-1,-7.293393016E-1,1.011522561E-1,5.214813352E-1,9.022806541E-1
5.736703650E-1,-7.268958688E-1,5.472653359E-2,5.178161263E-1,8.941510713E-1
5.761153130E-1,-6.994069815E-1,1.257687248E-2,5.159835815E-1,8.692337775E-1
5.785610950E-1,-6.835244894E-1,-5.522911623E-2,5.092640519E-1,8.541696889E-1
5.810060420E-1,-6.578681469E-1,-1.267002821E-1,5.031554103E-1,8.378596703E-1
5.834502090E-1,-6.395422220E-1,-2.109996229E-1,4.946032465E-1,8.355641603E-1
5.858951570E-1,-6.322118640E-1,-2.995750308E-1,4.811642468E-1,8.490913216E-1
5.883409380E-1,-6.059446335E-1,-3.844852149E-1,4.677252173E-1,8.566006411E-1
5.907858860E-1,-6.089989543E-1,-4.852778912E-1,4.493992627E-1,8.990739988E-1
5.932300530E-1,-6.071664095E-1,-5.817945004E-1,4.274081290E-1,9.432993153E-1
5.956750530E-1,-6.120532751E-1,-6.777002811E-1,4.035844207E-1,9.983823252E-1
5.981207820E-1,-6.212162971E-1,-7.693299651E-1,3.767063618E-1,1.058152147E0
6.005657820E-1,-6.279357672E-1,-8.560727239E-1,3.449414074E-1,1.116310177E0
6.030099490E-1,-6.352661848E-1,-9.354851842E-1,3.089003861E-1,1.172226558E0
6.054548970E-1,-6.370987296E-1,-1.008178115E0,2.716376483E-1,1.223153676E0
6.079006780E-1,-6.316009760E-1,-1.070486307E0,2.313205749E-1,1.264266560E0
6.103456260E-1,-6.254923344E-1,-1.117522836E0,1.867274493E-1,1.294204423E0
6.127897920E-1,-6.126641631E-1,-1.151731253E0,1.415234655E-1,1.312200879E0
6.152347400E-1,-5.967816710E-1,-1.164559484E0,9.509773552E-2,1.312017810E0
6.176805220E-1,-5.778448582E-1,-1.157839894E0,4.867202044E-2,1.294938943E0
6.201254700E-1,-5.552428961E-1,-1.134016156E0,2.857164014E-3,1.262654141E0
6.225696360E-1,-5.326408744E-1,-1.091866493E0,-4.417941719E-2,1.215660545E0
6.250146360E-1,-5.063737035E-1,-1.037499547E0,-9.182687104E-2,1.158124264E0
6.274603650E-1,-4.776630700E-1,-9.758022428E-1,-1.400851756E-1,1.095434107E0
6.299053130E-1,-4.471198320E-1,-9.055528045E-1,-1.859000325E-1,1.026888917E0
6.323495320E-1,-4.116896689E-1,-8.316381574E-1,-2.311040163E-1,9.563051159E-1
6.347944800E-1,-3.744269311E-1,-7.595561147E-1,-2.750862837E-1,8.903895112E-1
6.372402090E-1,-3.328881264E-1,-6.868632436E-1,-3.178468347E-1,8.268145078E-1
6.396852090E-1,-2.876841426E-1,-6.196681261E-1,-3.581638932E-1,7.713832555E-1
6.421293760E-1,-2.406475395E-1,-5.530838370E-1,-3.984809518E-1,7.229108092E-1
6.445743240E-1,-1.923892200E-1,-4.901648164E-1,-4.357437193E-1,6.834820759E-1
6.470201050E-1,-1.435200423E-1,-4.223588407E-1,-4.711738527E-1,6.488372618E-1
6.494650530E-1,-9.526173770E-2,-3.527202606E-1,-5.047714114E-1,6.231216243E-1
6.519092200E-1,-4.822515696E-2,-2.781947553E-1,-5.353146195E-1,6.052104837E-1
6.543541670E-1,3.315787762E-5,-2.006149143E-1,-5.658578873E-1,6.003677985E-1
6.567999490E-1,4.706974328E-2,-1.193699092E-1,-5.945684910E-1,6.082568754E-1
6.592448970E-1,9.349545836E-2,-3.568144515E-2,-6.202248335E-1,6.282462975E-1
6.616890630E-1,1.405320466E-1,4.739616066E-2,-6.422159672E-1,6.591183510E-1
6.641340630E-1,1.875686347E-1,1.280303001E-1,-6.611527801E-1,6.990684867E-1
6.665797920E-1,2.364378124E-1,2.068318576E-1,-6.788678169E-1,7.480265833E-1
6.690247920E-1,2.840852439E-1,2.795247436E-1,-6.923068762E-1,7.988287169E-1
6.714689590E-1,3.335652947E-1,3.442763984E-1,-7.026915550E-1,8.506276893E-1
6.739139070E-1,3.775475621E-1,4.004759490E-1,-7.118545175E-1,8.998110921E-1
6.763596880E-1,4.184754789E-1,4.481233954E-1,-7.173523307E-1,9.436793260E-1
6.788046360E-1,4.569599628E-1,4.817209542E-1,-7.216283679E-1,9.806196952E-1
6.812488030E-1,4.887249172E-1,5.037121177E-1,-7.259044051E-1,1.009710428E0
6.836937510E-1,5.156029463E-1,5.153185725E-1,-7.301805019E-1,1.031776718E0
6.861395320E-1,5.369832516E-1,5.104316473E-1,-7.332348228E-1,1.042364996E0
6.885844800E-1,5.546982884E-1,4.890513122E-1,-7.399542928E-1,1.046132751E0
6.910286470E-1,5.656938553E-1,4.493451416E-1,-7.485064268E-1,1.040279994E0
6.934735950E-1,5.730242729E-1,3.980324864E-1,-7.595019937E-1,1.031324370E0
6.959193760E-1,5.699699521E-1,3.436655402E-1,-7.729409933E-1,1.020004671E0
6.983643240E-1,5.565308928E-1,2.911311686E-1,-7.869908810E-1,1.006895545E0
7.008084900E-1,5.363723636E-1,2.373750955E-1,-7.985973358E-1,9.908581902E-1
7.032534900E-1,5.137704015E-1,1.762886196E-1,-8.108146191E-1,9.759395726E-1
7.056992200E-1,4.966661930E-1,1.078717709E-1,-8.218101859E-1,9.662740853E-1
7.081442200E-1,4.801728129E-1,3.212454170E-2,-8.297514319E-1,9.592107981E-1
7.105883860E-1,4.685663879E-1,-4.606614634E-2,-8.364709616E-1,9.598751061E-1
7.130333340E-1,4.594034255E-1,-1.193699092E-1,-8.364709616E-1,9.617610681E-1
7.154791150E-1,4.471861124E-1,-1.871758997E-1,-8.346383572E-1,9.652105593E-1
7.179240630E-1,4.337471128E-1,-2.452080399E-1,-8.273079395E-1,9.657649649E-1
7.203682300E-1,4.160320163E-1,-2.928555012E-1,-8.181449771E-1,9.634356163E-1
7.228131780E-1,3.946517706E-1,-3.258422017E-1,-8.071494102E-1,9.557265984E-1
7.252589590E-1,3.689954281E-1,-3.521093726E-1,-7.961538434E-1,9.455155094E-1
7.277039070E-1,3.500586450E-1,-3.893721402E-1,-7.833257318E-1,9.422053494E-1
7.301480740E-1,3.470043242E-1,-4.467934072E-1,-7.704975605E-1,9.558780469E-1
7.325930740E-1,3.500586450E-1,-5.054363608E-1,-7.546150684E-1,9.733708807E-1
7.350388030E-1,3.537238240E-1,-5.591924787E-1,-7.381217480E-1,9.912822437E-1
7.374838030E-1,3.579998910E-1,-6.019530296E-1,-7.167414427E-1,1.002112602E0
7.399279700E-1,3.598324656E-1,-6.318854094E-1,-6.910851598E-1,1.003173600E0
7.423729170E-1,3.561672866E-1,-6.422700882E-1,-6.666505337E-1,9.918613493E-1
7.448186470E-1,3.525021076E-1,-6.441026926E-1,-6.403833628E-1,9.742776123E-1
7.472636470E-1,3.531129658E-1,-6.477679014E-1,-6.208357215E-1,9.642245661E-1
7.497078130E-1,3.610542119E-1,-6.557091475E-1,-6.031206250E-1,9.612851389E-1
7.521527610E-1,3.769366741E-1,-6.648721099E-1,-5.915141702E-1,9.664497878E-1
7.545985420E-1,3.940408826E-1,-6.691481471E-1,-5.872381330E-1,9.735892793E-1
7.570434900E-1,4.141994417E-1,-6.630395055E-1,-5.860164165E-1,9.770352111E-1
7.594876570E-1,4.313036501E-1,-6.459352970E-1,-5.878490210E-1,9.740748010E-1
7.619326050E-1,4.490187168E-1,-6.141703129E-1,-5.902924538E-1,9.629476425E-1
7.643783860E-1,4.673446715E-1,-5.720206499E-1,-5.957902670E-1,9.489914163E-1
7.668233340E-1,4.826162755E-1,-5.158210993E-1,-5.994554162E-1,9.264646091E-1
7.692675010E-1,4.972770214E-1,-4.583998322E-1,-6.037314534E-1,9.065905967E-1
7.717125010E-1,5.125486255E-1,-4.089198112E-1,-6.104509830E-1,8.958637777E-1
7.741582300E-1,5.247659683E-1,-3.624940813E-1,-6.202248335E-1,8.896404468E-1
7.766032300E-1,5.345397592E-1,-3.270639181E-1,-6.263334751E-1,8.860006674E-1
7.790473970E-1,5.430918932E-1,-3.032402098E-1,-6.330530047E-1,8.875018513E-1
7.814923450E-1,5.473679304E-1,-2.867468596E-1,-6.403833628E-1,8.899023902E-1
7.839381260E-1,5.485896468E-1,-2.788056135E-1,-6.483246088E-1,8.938724568E-1
7.863830740E-1,5.455353260E-1,-2.818599343E-1,-6.513789296E-1,8.951806100E-1
7.888272400E-1,5.443136096E-1,-2.952989638E-1,-6.544332504E-1,9.009781700E-1
7.912721880E-1,5.400375724E-1,-3.136249185E-1,-6.568766832E-1,9.063598325E-1
7.937179700E-1,5.369832516E-1,-3.398920894E-1,-6.550441384E-1,9.126666797E-1
7.961629170E-1,5.308746099E-1,-3.686027229E-1,-6.495463252E-1,9.163003042E-1
7.986070840E-1,5.253767967E-1,-3.973133862E-1,-6.409942508E-1,9.191040936E-1
8.010520840E-1,5.137704015E-1,-4.211370945E-1,-6.281660795E-1,9.142806469E-1
8.034978130E-1,5.021639466E-1,-4.370195866E-1,-6.147270203E-1,9.061148149E-1
8.059427610E-1,4.856705964E-1,-4.455716908E-1,-6.012880206E-1,8.921644151E-1
8.083869280E-1,4.655120671E-1,-4.461825490E-1,-5.890707374E-1,8.733754549E-1
8.108319280E-1,4.496295750E-1,-4.474042952E-1,-5.744099617E-1,8.557360354E-1
8.132776570E-1,4.392448962E-1,-4.516803324E-1,-5.640252829E-1,8.456215000E-1
8.157226570E-1,4.313036501E-1,-4.565672576E-1,-5.518079996E-1,8.360434007E-1
8.181668240E-1,4.245841205E-1,-4.614541829E-1,-5.408124328E-1,8.280638416E-1
8.206117720E-1,4.196972251E-1,-4.645085037E-1,-5.304276943E-1,8.205287622E-1
8.230575530E-1,4.117559791E-1,-4.638976157E-1,-5.188212991E-1,8.086529073E-1
8.255025010E-1,4.013712704E-1,-4.559563994E-1,-5.053822398E-1,7.901938643E-1
8.279466670E-1,3.897648454E-1,-4.461825490E-1,-4.919432700E-1,7.700673234E-1
8.303916150E-1,3.763258159E-1,-4.351869822E-1,-4.791150987E-1,7.487056210E-1
8.328373970E-1,3.653302491E-1,-4.290783405E-1,-4.662869573E-1,7.314355335E-1
8.352823450E-1,3.543346822E-1,-4.315218031E-1,-4.534587860E-1,7.192975770E-1
8.377265110E-1,3.451717198E-1,-4.382413030E-1,-4.400197566E-1,7.105042871E-1
8.401715110E-1,3.366196156E-1,-4.492368698E-1,-4.278024733E-1,7.057913905E-1
8.426172400E-1,3.231805861E-1,-4.535129368E-1,-4.155851901E-1,6.948602200E-1
8.450622400E-1,3.036329150E-1,-4.522911906E-1,-4.015353024E-1,6.767502252E-1
8.475064070E-1,2.798092067E-1,-4.510694742E-1,-3.887071311E-1,6.579134415E-1
8.499513550E-1,2.541528642E-1,-4.522911906E-1,-3.740463853E-1,6.395871308E-1
8.523970840E-1,2.266639769E-1,-4.596215785E-1,-3.606073558E-1,6.266308474E-1
8.548420840E-1,2.003967911E-1,-4.724497497E-1,-3.471683264E-1,6.195913869E-1
8.572862510E-1,1.735187471E-1,-4.913865328E-1,-3.318967223E-1,6.178389066E-1
8.597311990E-1,1.478624344E-1,-5.121558905E-1,-3.178468347E-1,6.206396426E-1
8.621769800E-1,1.228169575E-1,-5.304818153E-1,-3.013534844E-1,6.223414529E-1
8.646219280E-1,1.014367044E-1,-5.439208746E-1,-2.854709923E-1,6.226018072E-1
8.670660950E-1,8.433248848E-2,-5.488077998E-1,-2.665341794E-1,6.159078166E-1
8.695110420E-1,7.150433213E-2,-5.378122330E-1,-2.457647771E-1,5.956132916E-1
8.719568240E-1,6.417395175E-2,-5.103232861E-1,-2.213301808E-1,5.599421410E-1
8.744017720E-1,6.173049659E-2,-4.657302201E-1,-1.956738681E-1,5.089239184E-1
8.768459380E-1,6.356308609E-2,-4.064763486E-1,-1.669632196E-1,4.440045097E-1
8.792909380E-1,7.272606343E-2,-3.313399851E-1,-1.358091235E-1,3.654030433E-1
8.817366670E-1,8.433248848E-2,-2.488732338E-1,-1.052659005E-1,2.830737800E-1
8.841816670E-1,1.020475700E-1,-1.615195721E-1,-7.411178946E-2,2.049264162E-1
8.866258340E-1,1.197626442E-1,-6.988986582E-2,-4.601201415E-2,1.460985617E-1
8.890707820E-1,1.399211884E-1,1.929638349E-2,-1.669050753E-2,1.422282054E-1
8.915165630E-1,1.551928073E-1,1.066500396E-1,7.744081784E-3,1.884648752E-1
8.939615110E-1,1.692426950E-1,1.891167760E-1,2.973521128E-2,2.555238297E-1
8.964056780E-1,1.814599931E-1,2.660857141E-1,4.989374802E-2,3.259121391E-1
8.988506260E-1,1.881794930E-1,3.345025480E-1,6.944142282E-2,3.900328029E-1
9.012964070E-1,1.918446869E-1,3.961999118E-1,8.654563129E-2,4.486300261E-1
9.037413550E-1,1.936772764E-1,4.493451416E-1,1.018172503E-1,4.997886515E-1
9.061855220E-1,1.942881495E-1,4.982143342E-1,1.189214587E-1,5.478208843E-1
9.086305220E-1,1.924555451E-1,5.440291762E-1,1.403017342E-1,5.938783192E-1
9.110762510E-1,1.900120974E-1,5.867897272E-1,1.635145992E-1,6.380938844E-1
9.135212510E-1,1.875686347E-1,6.295502782E-1,1.910035014E-1,6.841037078E-1
9.159653650E-1,1.851251721E-1,6.753650904E-1,2.215467393E-1,7.344877755E-1
9.184103650E-1,1.808491200E-1,7.181256413E-1,2.545334101E-1,7.830696634E-1
9.208560950E-1,1.777947992E-1,7.590535879E-1,2.905744314E-1,8.319896875E-1
9.233010950E-1,1.747404784E-1,7.969272137E-1,3.272263110E-1,8.790359932E-1
9.257452610E-1,1.722970158E-1,8.311356306E-1,3.669325411E-1,9.247227627E-1
9.281902090E-1,1.680209637E-1,8.629005551E-1,4.096930623E-1,9.698849507E-1
9.306359900E-1,1.582471281E-1,8.940546513E-1,4.518427253E-1,1.014168488E0
9.330809380E-1,1.478624344E-1,9.252088070E-1,4.946032465E-1,1.059484312E0
9.355251050E-1,1.350342631E-1,9.551411271E-1,5.355312228E-1,1.103323396E0
9.379700530E-1,1.209843755E-1,9.814083576E-1,5.782917738E-1,1.145522134E0
9.404158340E-1,1.057127565E-1,1.003399491E0,6.204414368E-1,1.184454855E0
9.428607820E-1,8.983027190E-2,1.021114588E0,6.601476073E-1,1.219237197E0
9.453049490E-1,7.333692163E-2,1.038218737E0,6.974104047E-1,1.252859817E0
9.477499490E-1,5.562184751E-2,1.046770811E0,7.340622544E-1,1.279714935E0
9.501956780E-1,3.607417643E-2,1.050436020E0,7.682706714E-1,1.301905143E0
9.526406780E-1,1.835909858E-2,1.046159983E0,8.006465435E-1,1.317506225E0
9.550848450E-1,3.698346205E-3,1.032720923E0,8.311897516E-1,1.325670618E0
9.575297920E-1,-1.523846015E-2,1.013173342E0,8.605112433E-1,1.329372796E0
9.599755740E-1,-4.089477658E-2,9.942364693E-1,8.898327351E-1,1.334908550E0
9.624205220E-1,-7.082714885E-2,9.783539772E-1,9.154890776E-1,1.341757519E0
9.648646880E-1,-1.080899015E-1,9.606389403E-1,9.393128157E-1,1.347894345E0
9.673096360E-1,-1.496286839E-1,9.417021275E-1,9.600822330E-1,1.353125838E0
9.697554170E-1,-1.930000931E-1,9.166566730E-1,9.784081578E-1,1.354544579E0
9.722003650E-1,-2.320954353E-1,8.824482560E-1,9.955123663E-1,1.350417745E0
9.746445320E-1,-2.718016505E-1,8.464072347E-1,1.010783911E0,1.346092663E0
9.770895320E-1,-3.102861345E-1,8.103662133E-1,1.027277231E0,1.344719077E0
9.795352610E-1,-3.506031930E-1,7.840990424E-1,1.043159723E0,1.351264636E0
9.819802090E-1,-3.945854604E-1,7.663839459E-1,1.059653044E0,1.365981922E0
9.844243760E-1,-4.355134070E-1,7.596644163E-1,1.077978969E0,1.388812662E0
9.868693760E-1,-4.752196074E-1,7.590535879E-1,1.097526670E0,1.416531261E0
9.893151050E-1,-5.124823451E-1,7.657730579E-1,1.118296027E0,1.449010882E0
9.917601050E-1,-5.442473292E-1,7.755469084E-1,1.137232900E0,1.480194862E0
9.942042720E-1,-5.631841421E-1,7.773795128E-1,1.159224033E0,1.505089912E0
9.966492200E-1,-5.717362165E-1,7.700491548E-1,1.179993391E0,1.520605933E0
9.990950010E-1,-5.741797090E-1,7.657730579E-1,1.201373696E0,1.536030427E0
1.001539949E0,-5.754014254E-1,7.651622295E-1,1.225197434E0,1.554885459E0
1.003984115E0,-5.808991790E-1,7.737143040E-1,1.250853658E0,1.581364143E0
1.006429063E0,-5.870078206E-1,7.816555500E-1,1.277120829E0,1.608291389E0
1.008874845E0,-5.888404250E-1,7.743251920E-1,1.300944567E0,1.624428920E0
1.011319792E0,-5.851752758E-1,7.480580211E-1,1.322935700E0,1.628551434E0
1.013763959E0,-5.851752758E-1,7.114061117E-1,1.344316006E0,1.629636242E0
1.016208959E0,-5.863969922E-1,6.680347323E-1,1.363863707E0,1.627960702E0
1.018654688E0,-5.961708426E-1,6.252741814E-1,1.378524423E0,1.626873400E0
1.021099688E0,-6.102207303E-1,5.727398396E-1,1.389519930E0,1.622086896E0
1.023543855E0,-6.248814464E-1,5.079881549E-1,1.394406915E0,1.610248251E0
1.025988803E0,-6.401530504E-1,4.291865826E-1,1.395628691E0,1.594294983E0
1.028434584E0,-6.578681469E-1,3.473307192E-1,1.393796086E0,1.579904003E0
1.030879532E0,-6.847462058E-1,2.746378183E-1,1.386465669E0,1.570538235E0
1.033323699E0,-7.213981152E-1,2.208817452E-1,1.377302647E0,1.570403313E0
1.035768647E0,-7.672129273E-1,1.842298508E-1,1.363863707E0,1.575652412E0
1.038214428E0,-8.111951947E-1,1.646821797E-1,1.346759439E0,1.580796903E0
1.040659376E0,-8.472362161E-1,1.463562399E-1,1.327211738E0,1.581366609E0
1.043103542E0,-8.625078201E-1,1.182564646E-1,1.305220604E0,1.568918467E0
1.045548542E0,-8.447927833E-1,6.938728690E-2,1.281396985E0,1.536381357E0
1.047994272E0,-8.001996279E-1,3.595738672E-4,1.260627508E0,1.493151462E0
1.050439220E0,-7.317827940E-1,-7.599851489E-2,1.243523359E0,1.444864069E0
1.052883386E0,-6.554247141E-1,-1.364741176E-1,1.231916904E0,1.402079170E0
1.055328386E0,-5.937273502E-1,-1.572435200E-1,1.227029920E0,1.372166212E0
1.057774115E0,-5.582972169E-1,-1.285328716E-1,1.225197434E0,1.352525502E0
1.060219115E0,-5.424147248E-1,-8.210715652E-2,1.223364830E0,1.340737419E0
1.062663282E0,-5.295865536E-1,-6.133776158E-2,1.216645241E0,1.328325969E0
1.065108230E0,-5.192018747E-1,-8.393975347E-2,1.199541092E0,1.309776813E0
1.067554011E0,-5.057628155E-1,-1.560217887E-1,1.170219541E0,1.284349095E0
1.069998959E0,-4.898803532E-1,-2.757512927E-1,1.132345915E0,1.264210745E0
1.072443126E0,-4.782739282E-1,-4.290783405E-1,1.083476782E0,1.259673017E0
1.074888126E0,-4.746087492E-1,-5.976769924E-1,1.027888060E0,1.280244162E0
1.077333855E0,-4.794956446E-1,-7.674973607E-1,9.643582702E-1,1.322480679E0
1.079778803E0,-4.984324574E-1,-9.214352965E-1,8.959414363E-1,1.378473423E0
1.082222970E0,-5.308082700E-1,-1.049106002E0,8.208050728E-1,1.433911361E0
1.084667970E0,-5.680710673E-1,-1.153563857E0,7.407817841E-1,1.483971685E0
1.087113699E0,-6.004468799E-1,-1.238474011E0,6.534281373E-1,1.523588745E0
1.089558699E0,-6.181619763E-1,-1.301393151E0,5.599657893E-1,1.545739321E0
1.092002865E0,-6.212162971E-1,-1.338655829E0,4.634491503E-1,1.546833615E0
1.094447813E0,-6.102207303E-1,-1.341099381E0,3.681542575E-1,1.518701566E0
1.096893595E0,-5.857861042E-1,-1.302003980E0,2.728593647E-1,1.453551498E0
1.099338542E0,-5.534102917E-1,-1.221369863E0,1.861165911E-1,1.353752813E0
1.101782709E0,-5.137040615E-1,-1.099807739E0,1.030389816E-1,1.218230667E0
1.104227657E0,-4.660566449E-1,-9.385395050E-1,2.973521128E-2,1.048307866E0
1.106673438E0,-4.092462063E-1,-7.528365850E-1,-3.318385407E-2,8.575234978E-1
1.109118386E0,-3.426619470E-1,-5.543055534E-1,-8.755081892E-2,6.575233854E-1
1.111562553E0,-2.614169419E-1,-3.545528352E-1,-1.370308548E-1,4.613285008E-1
1.114007553E0,-1.710089594E-1,-1.578543931E-1,-1.785696447E-1,2.933414250E-1
1.116453282E0,-7.754666358E-2,4.189837724E-2,-2.133889347E-1,2.308761497E-1
1.118898230E0,1.774823293E-2,2.343207747E-1,-2.420995831E-1,3.373921063E-1
1.121342397E0,1.081562117E-1,4.212453663E-1,-2.683667839E-1,5.110441815E-1
1.123787397E0,1.912338287E-1,5.990070105E-1,-2.915796340E-1,6.931078262E-1
1.126233126E0,2.663701773E-1,7.645513415E-1,-3.147924840E-1,8.686691736E-1
1.128678126E0,3.268457651E-1,9.172675610E-1,-3.349510431E-1,1.029757318E0
1.131122292E0,3.781584203E-1,1.047381759E0,-3.563312888E-1,1.169181050E0
1.133567240E0,4.221406579E-1,1.151228666E0,-3.795441687E-1,1.283582468E0
1.136013022E0,4.551273584E-1,1.232473731E0,-4.015353024E-1,1.373813309E0
1.138457970E0,4.783402383E-1,1.291116714E0,-4.253590107E-1,1.441083635E0
1.140902136E0,4.966661930E-1,1.321049094E0,-4.473501444E-1,1.480530367E0
1.143347084E0,5.082725883E-1,1.330212116E0,-4.699521363E-1,1.499553370E0
1.145792865E0,5.149921179E-1,1.313718796E0,-4.919432700E-1,1.494350072E0
1.148237813E0,5.192681551E-1,1.271569133E0,-5.133234859E-1,1.466297541E0
1.150681980E0,5.241550803E-1,1.205595732E0,-5.340929031E-1,1.418962595E0
1.153126980E0,5.198790431E-1,1.132902741E0,-5.542514324E-1,1.364161827E0
1.155572709E0,5.082725883E-1,1.051657796E0,-5.725773573E-1,1.300834338E0
1.158017709E0,4.850597382E-1,9.716345072E-1,-5.927358866E-1,1.237211541E0
1.160461876E0,4.557382464E-1,8.879460096E-1,-6.116726995E-1,1.170593421E0
1.162906824E0,4.209189415E-1,8.005923629E-1,-6.324421167E-1,1.103677452E0
1.165352605E0,3.842670619E-1,7.022431493E-1,-6.550441384E-1,1.034354600E0
1.167797553E0,3.482260406E-1,5.922874808E-1,-6.819221377E-1,9.680308039E-1
1.170241720E0,3.115741611E-1,4.688927829E-1,-7.094110847E-1,9.056505876E-1
1.172686667E0,2.737005353E-1,3.406112194E-1,-7.387325764E-1,8.582853868E-1
1.175132449E0,2.352160811E-1,2.098861784E-1,-7.680540681E-1,8.302324158E-1
1.177577397E0,1.912338287E-1,7.793939114E-2,-7.979864478E-1,8.242737997E-1
1.180021563E0,1.460298300E-1,-5.400738493E-2,-8.273079395E-1,8.418312988E-1
1.182466511E0,9.593892097E-2,-1.816781163E-1,-8.584620953E-1,8.827051509E-1
1.184912292E0,4.523714632E-2,-3.056836724E-1,-8.859509826E-1,9.382952896E-1
1.187357240E0,-7.297218777E-3,-4.266348779E-1,-9.128290415E-1,1.007634570E0
1.189801407E0,-5.433380231E-2,-5.457534790E-1,-9.366527796E-1,1.085411190E0
1.192246407E0,-9.342914075E-2,-6.648721099E-1,-9.574221373E-1,1.169376362E0
1.194692136E0,-1.251941025E-1,-7.864341736E-1,-9.733046293E-1,1.257566767E0
1.197137136E0,-1.490178257E-1,-9.000549912E-1,-9.818567634E-1,1.340279077E0
1.199581303E0,-1.636785865E-1,-1.002680302E0,-9.818567634E-1,1.412869835E0
1.202026251E0,-1.765067428E-1,-1.088201284E0,-9.739155173E-1,1.471002414E0
1.204472032E0,-1.856697053E-1,-1.151120424E0,-9.586439133E-1,1.509486543E0
1.206916980E0,-1.942218095E-1,-1.191437483E0,-9.335984588E-1,1.526057492E0
1.209361147E0,-1.972761452E-1,-1.206098199E0,-9.048877954E-1,1.520661917E0
1.211806095E0,-1.978870034E-1,-1.202432990E0,-8.743445277E-1,1.499827562E0
1.214251876E0,-1.887240261E-1,-1.183496237E0,-8.444122076E-1,1.466053231E0
1.216696824E0,-1.716198176E-1,-1.150509596E0,-8.175341487E-1,1.421790342E0
1.219140990E0,-1.471852362E-1,-1.116912007E0,-7.961538434E-1,1.379498774E0
1.221585990E0,-1.111442223E-1,-1.075373173E0,-7.814931273E-1,1.333983511E0
1.224031720E0,-8.121185005E-2,-1.035666943E0,-7.729409933E-1,1.294851018E0
1.226476720E0,-3.051007912E-2,-9.843543172E-1,-7.698866725E-1,1.250043909E0
1.228920886E0,-3.021165729E-3,-9.428155422E-1,-7.759953141E-1,1.221097458E0
1.231365834E0,4.157195985E-2,-8.878377080E-1,-7.839365602E-1,1.185133138E0
1.233811563E0,7.333692163E-2,-8.365250826E-1,-7.992081642E-1,1.159261061E0
1.236256563E0,1.014367044E-1,-7.784929276E-1,-8.138689399E-1,1.130806480E0
1.238700730E0,1.356451362E-1,-7.186281681E-1,-8.279188275E-1,1.104660867E0
1.241145678E0,1.570253968E-1,-6.624286175E-1,-8.425796032E-1,1.083240064E0
1.243591459E0,2.016185224E-1,-5.995095968E-1,-8.541859984E-1,1.062871349E0
1.246036407E0,2.272748351E-1,-5.457534790E-1,-8.639598489E-1,1.046865479E0
1.248480574E0,2.785874605E-1,-4.785583913E-1,-8.670141697E-1,1.028757832E0
1.250925574E0,3.164610863E-1,-4.180827737E-1,-8.682358861E-1,1.014285156E0
1.253371303E0,3.671628535E-1,-3.466115892E-1,-8.651815653E-1,1.001742130E0
1.255816251E0,4.105342329E-1,-2.794164717E-1,-8.590729237E-1,9.922793000E-1
1.258260470E0,4.508513212E-1,-2.122213542E-1,-8.517425656E-1,9.867979607E-1
1.260705417E0,4.917792380E-1,-1.572435200E-1,-8.425796032E-1,9.881865873E-1
1.263151147E0,5.137704015E-1,-1.126503944E-1,-8.358600736E-1,9.875789586E-1
1.265596147E0,5.510331392E-1,-7.783110440E-2,-8.266971111E-1,9.965557259E-1
1.268040313E0,5.583634973E-1,-6.561380625E-2,-8.205884695E-1,9.947061892E-1
1.270485261E0,5.821872354E-1,-5.828343704E-2,-8.138689399E-1,1.002358014E0
1.272931042E0,5.809655190E-1,-7.599851489E-2,-8.083711863E-1,9.983790278E-1
1.275375990E0,5.907393098E-1,-9.554618597E-2,-8.016516566E-1,1.000373622E0
1.277820157E0,5.889067650E-1,-1.352523863E-1,-7.967647314E-1,9.999692111E-1
1.280265105E0,5.834089518E-1,-1.767911911E-1,-7.906560898E-1,9.983777755E-1
1.282710886E0,5.815763474E-1,-2.244386375E-1,-7.821039557E-1,1.000145163E0
1.285155834E0,5.644721389E-1,-2.739186883E-1,-7.766062021E-1,9.983874181E-1
1.287600001E0,5.595852137E-1,-3.111814559E-1,-7.692758441E-1,1.000877032E0
1.290045001E0,5.265985131E-1,-3.484441936E-1,-7.625563145E-1,9.900563029E-1
1.292490730E0,5.149921179E-1,-3.618832231E-1,-7.558367848E-1,9.835982889E-1
1.294935730E0,4.850597382E-1,-3.863178194E-1,-7.485064268E-1,9.720011719E-1
1.297379897E0,4.758967757E-1,-3.979242444E-1,-7.387325764E-1,9.646487780E-1
1.299824845E0,4.612360001E-1,-4.229696989E-1,-7.271261811E-1,9.593510813E-1
1.302270626E0,4.508513212E-1,-4.412956238E-1,-7.149088383E-1,9.534691335E-1
1.304715574E0,4.490187168E-1,-4.632867575E-1,-7.002481222E-1,9.521553762E-1
1.307159740E0,4.349688292E-1,-4.864996374E-1,-6.825330257E-1,9.443151543E-1
1.309604688E0,4.392448962E-1,-5.005494952E-1,-6.611527801E-1,9.384076271E-1
1.312050470E0,4.239732623E-1,-5.237623453E-1,-6.385507584E-1,9.283465907E-1
1.314495417E0,4.282493293E-1,-5.292600989E-1,-6.171705127E-1,9.189195733E-1
1.316939584E0,4.068690538E-1,-5.402556658E-1,-5.970119834E-1,9.021318749E-1
1.319384584E0,3.977060914E-1,-5.298709869E-1,-5.780751705E-1,8.792634990E-1
1.321830313E0,3.757149577E-1,-5.188754201E-1,-5.609709620E-1,8.515173817E-1
1.324275313E0,3.525021076E-1,-5.097124577E-1,-5.450884700E-1,8.253399091E-1
1.326719428E0,3.299000859E-1,-4.962734580E-1,-5.255407691E-1,7.945530264E-1
1.329164428E0,3.091306984E-1,-4.846670330E-1,-5.078257322E-1,7.670403483E-1
1.331610157E0,2.926373482E-1,-4.693953991E-1,-4.858346283E-1,7.362091716E-1
1.334055157E0,2.840852439E-1,-4.455716908E-1,-4.638434947E-1,7.031282564E-1
1.336499324E0,2.798092067E-1,-4.156393111E-1,-4.394088984E-1,6.664303482E-1
1.338944272E0,2.810309231E-1,-3.728787899E-1,-4.119199812E-1,6.226516222E-1
1.341390053E0,2.895830274E-1,-3.179009557E-1,-3.813767433E-1,5.747761022E-1
1.343835001E0,3.018003106E-1,-2.476515025E-1,-3.502226472E-1,5.244717312E-1
1.346279167E0,3.152393401E-1,-1.529674679E-1,-3.166250885E-1,4.722566404E-1
1.348724115E0,3.299000859E-1,-4.301182181E-2,-2.811949253E-1,4.356083901E-1
1.351169897E0,3.470043242E-1,7.977199554E-2,-2.463756353E-1,4.329855955E-1
1.353614845E0,3.665519953E-1,2.104970366E-1,-2.097237557E-1,4.718616549E-1
1.356059011E0,3.879322410E-1,3.461090028E-1,-1.724610031E-1,5.477459840E-1
1.358504011E0,4.105342329E-1,4.768340290E-1,-1.339765191E-1,6.433185488E-1
1.360949740E0,4.294710457E-1,6.038939357E-1,-9.549206495E-2,7.471626323E-1
1.363394740E0,4.459643960E-1,7.248451710E-1,-6.067277119E-2,8.532092062E-1
1.365838907E0,4.594034255E-1,8.317464590E-1,-2.646434307E-2,9.505545965E-1
1.368283855E0,4.685663879E-1,9.276522398E-1,8.965810761E-3,1.039313968E0
1.370729636E0,4.746750295E-1,1.014394999E0,4.256337136E-2,1.120769931E0
1.373174584E0,4.716207087E-1,1.095640063E0,7.616092265E-2,1.195263037E0
1.375618751E0,4.655120671E-1,1.169554710E0,1.091476232E-1,1.263516090E0
1.378063699E0,4.563491046E-1,1.234306335E0,1.445777863E-1,1.323884199E0
1.380509480E0,4.441317916E-1,1.287451506E0,1.812296659E-1,1.373909975E0
1.382954428E0,4.306927919E-1,1.330212116E0,2.184924185E-1,1.415167655E0
1.385398595E0,4.148102999E-1,1.369918346E0,2.581986189E-1,1.454445045E0
1.387843595E0,3.934300244E-1,1.403515816E0,3.027917445E-1,1.488733243E0
1.390289324E0,3.696063161E-1,1.434059143E0,3.498283327E-1,1.521681411E0
1.392734324E0,3.415065408E-1,1.460937142E0,3.993083537E-1,1.552549907E0
1.395178490E0,3.109633029E-1,1.485982537E0,4.506210089E-1,1.583635555E0
1.397623438E0,2.791983187E-1,1.509806275E0,5.037662387E-1,1.615935368E0
1.400069220E0,2.443790585E-1,1.531186581E0,5.556897521E-1,1.647132226E0
1.402514167E0,2.126140893E-1,1.540349603E0,6.082241535E-1,1.669676097E0
1.404958334E0,1.802382618E-1,1.542793036E0,6.577041745E-1,1.686793100E0
1.407403282E0,1.484732926E-1,1.536684394E0,7.053515911E-1,1.697340305E0
1.409849063E0,1.185409129E-1,1.519580126E0,7.505556345E-1,1.698973063E0
1.412294011E0,8.677595109E-2,1.500643373E0,7.927052975E-1,1.699365260E0
1.414738178E0,5.256752297E-2,1.472543597E0,8.287463188E-1,1.690552706E0
1.417183126E0,1.469391119E-2,1.443222046E0,8.605112433E-1,1.680352756E0
1.419628907E0,-2.562316135E-2,1.409013629E0,8.880001903E-1,1.665689134E0
1.422073855E0,-6.899455935E-2,1.366863966E0,9.087695479E-1,1.642844923E0
1.424518022E0,-1.111442223E-1,1.322881699E0,9.277063608E-1,1.619570350E0
1.426963022E0,-1.581808031E-1,1.275845170E0,9.423671365E-1,1.594006865E0
1.429408751E0,-2.064391077E-1,1.234306335E0,9.570279121E-1,1.575446495E0
1.431853751E0,-2.595843673E-1,1.193989277E0,9.710777998E-1,1.560764726E0
1.434297917E0,-3.108969927E-1,1.154893875E0,9.820733070E-1,1.547547991E0
1.436742865E0,-3.591552973E-1,1.113355160E0,9.955123663E-1,1.536098015E0
1.439188647E0,-4.025267065E-1,1.068151116E0,1.010172963E0,1.524278181E0
1.441633595E0,-4.434546232E-1,1.022336245E0,1.025444627E0,1.514384391E0
1.444077761E0,-4.801065326E-1,9.765213728E-1,1.041327119E0,1.506140247E0
1.446522709E0,-5.137040615E-1,9.319282770E-1,1.059042215E0,1.501316952E0
1.448968490E0,-5.460799336E-1,8.885568976E-1,1.076146364E0,1.498608572E0
1.451413438E0,-5.754014254E-1,8.464072347E-1,1.093861461E0,1.498006977E0
1.453857605E0,-6.053338051E-1,8.115879297E-1,1.114019990E0,1.505371888E0
1.456302605E0,-6.383205056E-1,7.816555500E-1,1.135400295E0,1.519069550E0
1.458748334E0,-6.706963181E-1,7.608861923E-1,1.153726220E0,1.536185386E0
1.461193282E0,-7.018504143E-1,7.401167750E-1,1.173884749E0,1.555111652E0
1.463637501E0,-7.305610776E-1,7.156821489E-1,1.192821503E0,1.571223588E0
1.466082449E0,-7.537739277E-1,6.888041496E-1,1.211758375E0,1.584608674E0
1.468528178E0,-7.763758898E-1,6.686456203E-1,1.230084300E0,1.600922819E0
1.470973178E0,-7.977561951E-1,6.527631283E-1,1.246577621E0,1.617550745E0
1.473417345E0,-8.179147243E-1,6.393240690E-1,1.263681889E0,1.635424005E0
1.475862292E0,-8.392949700E-1,6.295502782E-1,1.279564381E0,1.654700760E0
1.478308074E0,-8.600643873E-1,6.240524650E-1,1.294835925E0,1.675038000E0
1.480753022E0,-8.802229166E-1,6.222198606E-1,1.307053208E0,1.694207197E0
1.483197188E0,-9.016031623E-1,6.222198606E-1,1.318048835E0,1.713854880E0
1.485642136E0,-9.199291468E-1,6.173329353E-1,1.328433514E0,1.729770270E0
1.488087917E0,-9.284812212E-1,6.002287269E-1,1.333931327E0,1.732548610E0
1.490532865E0,-9.278703332E-1,5.684638023E-1,1.338207364E0,1.724787929E0
1.492977032E0,-9.217616916E-1,5.348662138E-1,1.340650797E0,1.712621103E0
1.495422032E0,-9.156530499E-1,5.037121177E-1,1.340039968E0,1.699368566E0
1.497867761E0,-9.132096171E-1,4.823318422E-1,1.341872573E0,1.693286099E0
1.500312761E0,-9.107661247E-1,4.652276039E-1,1.343705177E0,1.688631180E0
1.502756928E0,-9.083226919E-1,4.481233954E-1,1.343705177E0,1.682678904E0
1.505201876E0,-9.028248787E-1,4.267431200E-1,1.341261625E0,1.672179775E0
1.507647657E0,-8.961054087E-1,4.029194117E-1,1.336985588E0,1.659180345E0
1.510092605E0,-8.912184834E-1,3.790956736E-1,1.328433514E0,1.643994986E0
1.512536772E0,-8.906075954E-1,3.619914651E-1,1.319270492E0,1.632389151E0
1.514981720E0,-8.954945207E-1,3.546611071E-1,1.303998947E0,1.621144100E0
1.517427501E0,-9.058792591E-1,3.558828235E-1,1.285062075E0,1.612034228E0
1.519872449E0,-9.168747663E-1,3.577154279E-1,1.260627508E0,1.599312783E0
1.522316615E0,-9.229834676E-1,3.552719653E-1,1.231916904E0,1.579789831E0
1.524761615E0,-9.211508632E-1,3.387786150E-1,1.199541092E0,1.549899575E0
1.527207345E0,-9.046574831E-1,3.057919145E-1,1.162889123E0,1.504734185E0
1.529652345E0,-8.759468794E-1,2.581444681E-1,1.124404669E0,1.448519023E0
1.532096511E0,-8.386840820E-1,1.958362907E-1,1.085309386E0,1.385510486E0
1.534541459E0,-7.953127027E-1,1.292520314E-1,1.047435760E0,1.321495386E0
1.536987188E0,-7.525522113E-1,6.694383919E-2,1.012616396E0,1.263411364E0
1.539432188E0,-7.213981152E-1,8.300816640E-3,9.808515906E-1,1.217601736E0
1.541876355E0,-7.000178099E-1,-3.934663162E-2,9.490866661E-1,1.179973979E0
1.544321303E0,-6.920765638E-1,-8.332888782E-2,9.191542864E-1,1.153584967E0
1.546767084E0,-6.951308846E-1,-1.303654760E-1,8.886110187E-1,1.135707553E0
1.549212032E0,-7.042938471E-1,-1.877867579E-1,8.550134897E-1,1.123539833E0
1.551656199E0,-7.091807723E-1,-2.671991885E-1,8.171398640E-1,1.114473118E0
1.554101147E0,-7.110133767E-1,-3.643266857E-1,7.743793130E-1,1.112626297E0
1.556546928E0,-7.116242647E-1,-4.736714661E-1,7.242884040E-1,1.120431811E0
1.558991876E0,-7.061264515E-1,-5.879031420E-1,6.711431742E-1,1.137839106E0
1.561436042E0,-6.969634891E-1,-6.990805268E-1,6.125001907E-1,1.161734983E0
1.563881042E0,-6.829136014E-1,-7.998731732E-1,5.508028269E-1,1.187245482E0
1.566326772E0,-6.676419973E-1,-8.792856336E-1,4.884946048E-1,1.207276290E0
1.568771772E0,-6.493160725E-1,-9.367069006E-1,4.231320918E-1,1.215759823E0
1.571215938E0,-6.261031628E-1,-9.703044295E-1,3.559369743E-1,1.208381970E0
1.573660886E0,-6.016685963E-1,-9.812999964E-1,2.875201106E-1,1.186432719E0
1.576106667E0,-5.705145001E-1,-9.678609967E-1,2.178815603E-1,1.144427402E0
1.578551615E0,-5.338625908E-1,-9.428155422E-1,1.451886594E-1,1.093156054E0
1.580995782E0,-4.892694950E-1,-8.982223868E-1,7.005228102E-2,1.025229446E0
1.583440730E0,-4.391785860E-1,-8.450771570E-1,-6.916671991E-3,9.524080386E-1
1.585886511E0,-3.823681772E-1,-7.803255320E-1,-8.693994582E-2,8.733108913E-1
1.588331459E0,-3.249468803E-1,-7.009131312E-1,-1.669632196E-1,7.904090139E-1
1.590775626E0,-2.632495463E-1,-6.123377085E-1,-2.469864935E-1,7.108165170E-1
1.593220626E0,-1.997195929E-1,-5.145993829E-1,-3.257880509E-1,6.409666877E-1
1.595666355E0,-1.361896694E-1,-4.076980650E-1,-4.027570188E-1,5.890488558E-1
1.598111303E0,-7.143801451E-2,-2.910229266E-1,-4.754499197E-1,5.620056582E-1
1.600555470E0,-7.908083498E-3,-1.688499600E-1,-5.420341492E-1,5.677797686E-1
1.603000470E0,5.440011621E-2,-4.545528069E-2,-6.049532294E-1,6.090927392E-1
1.605446199E0,1.191517785E-1,7.488507032E-2,-6.605418921E-1,6.753669456E-1
1.607891199E0,1.832925826E-1,1.903385073E-1,-7.118545175E-1,7.593166482E-1
1.610335365E0,2.443790585E-1,2.990724146E-1,-7.570585012E-1,8.498841143E-1
1.612780313E0,3.018003106E-1,3.974216282E-1,-7.979864478E-1,9.411746644E-1
1.615226095E0,3.555564284E-1,4.872187674E-1,-8.334166408E-1,1.028778790E0
1.617671042E0,4.050364494E-1,5.666311979E-1,-8.639598489E-1,1.109753153E0
1.620115209E0,4.477970004E-1,6.295502782E-1,-8.920596242E-1,1.180095792E0
1.622560157E0,4.881140590E-1,6.704781651E-1,-9.177159667E-1,1.236931243E0
1.625005938E0,5.253767967E-1,6.912475824E-1,-9.427614212E-1,1.281656388E0
1.627450886E0,5.620287061E-1,6.906367540E-1,-9.659742713E-1,1.313758610E0
1.629895053E0,5.876849890E-1,6.765868068E-1,-9.885762334E-1,1.334326168E0
1.632340053E0,6.041783690E-1,6.545957327E-1,-1.010567546E0,1.347135420E0
1.634785782E0,6.115087271E-1,6.258850694E-1,-1.031336904E0,1.352527579E0
1.637230782E0,6.121196151E-1,5.880114436E-1,-1.049662828E0,1.349903676E0
1.639674949E0,6.090652943E-1,5.366988182E-1,-1.064934492E0,1.339063713E0
1.642119897E0,6.060109735E-1,4.731688797E-1,-1.077151775E0,1.323402447E0
1.644565678E0,6.047891974E-1,4.010868073E-1,-1.085703850E0,1.305907137E0
1.647010626E0,6.041783690E-1,3.228961229E-1,-1.089979887E0,1.287380892E0
1.649454792E0,6.041783690E-1,2.392076701E-1,-1.089979887E0,1.268979104E0
1.651899740E0,6.060109735E-1,1.542974859E-1,-1.084482193E0,1.251862069E0
1.654345522E0,6.066218019E-1,6.999816000E-2,-1.073486567E0,1.235015450E0
1.656790470E0,6.072326899E-1,-1.124685444E-2,-1.058214903E0,1.220113442E0
1.659234636E0,6.047891974E-1,-9.065926075E-2,-1.039278150E0,1.205855774E0
1.661679636E0,6.017348766E-1,-1.651847661E-1,-1.016065240E0,1.192375545E0
1.664125365E0,5.919610858E-1,-2.311581522E-1,-9.891871214E-1,1.175730913E0
1.666570365E0,5.803546309E-1,-2.885794640E-1,-9.580330253E-1,1.156683570E0
1.669014532E0,5.614178181E-1,-3.392812312E-1,-9.287115335E-1,1.137016637E0
1.671459480E0,5.430918932E-1,-3.869286776E-1,-8.981682658E-1,1.118645985E0
1.673905261E0,5.241550803E-1,-4.364087284E-1,-8.682358861E-1,1.104094507E0
1.676350209E0,5.070508718E-1,-4.852778912E-1,-8.444122076E-1,1.098010562E0
1.678794376E0,4.948335886E-1,-5.420882702E-1,-8.236427903E-1,1.103225915E0
1.681239324E0,4.850597382E-1,-5.995095968E-1,-8.059276938E-1,1.115443479E0
1.683685105E0,4.765076339E-1,-6.563199759E-1,-7.924886942E-1,1.133954923E0
1.686130053E0,4.630686045E-1,-7.058000565E-1,-7.827148438E-1,1.151185814E0
1.688574220E0,4.496295750E-1,-7.510040402E-1,-7.778279185E-1,1.170978264E0
1.691019167E0,4.325253665E-1,-7.888776064E-1,-7.766062021E-1,1.188496219E0
1.693464949E0,4.123668373E-1,-8.249186277E-1,-7.790496349E-1,1.207251210E0
1.695909897E0,3.922083080E-1,-8.603488207E-1,-7.833257318E-1,1.227854491E0
1.698354063E0,3.763258159E-1,-9.006658792E-1,-7.863800526E-1,1.253480647E0
1.700799063E0,3.604433239E-1,-9.434264302E-1,-7.876017690E-1,1.280737821E0
1.703244792E0,3.482260406E-1,-9.880195260E-1,-7.845474482E-1,1.308800465E0
1.705689792E0,3.353978693E-1,-1.029558301E0,-7.784388065E-1,1.333585018E0
1.708133959E0,3.219588697E-1,-1.064377666E0,-7.643889189E-1,1.349387916E0
1.710578907E0,3.109633029E-1,-1.096142530E0,-7.460629344E-1,1.361923832E0
1.713024688E0,3.036329150E-1,-1.127907515E0,-7.234609723E-1,1.373959274E0
1.715469636E0,2.999677360E-1,-1.159061670E0,-6.971938014E-1,1.385454364E0
1.717913803E0,3.005785942E-1,-1.190826654E0,-6.697048545E-1,1.398899641E0
1.720358751E0,3.030220568E-1,-1.218926430E0,-6.416050792E-1,1.410411672E0
1.722804532E0,3.066872358E-1,-1.240306616E0,-6.153379083E-1,1.418117874E0
1.725249480E0,3.072980940E-1,-1.250691414E0,-5.939576626E-1,1.418254856E0
1.727693647E0,3.024111986E-1,-1.253134847E0,-5.762425661E-1,1.412039295E0
1.730138647E0,2.993568778E-1,-1.251302242E0,-5.658578873E-1,1.405548644E0
1.732584376E0,2.944699526E-1,-1.248247862E0,-5.597492456E-1,1.399340736E0
1.735029376E0,2.938590944E-1,-1.239695787E0,-5.566949248E-1,1.390362561E0
1.737473542E0,2.969134152E-1,-1.231143713E0,-5.536405444E-1,1.382168684E0
1.739918490E0,3.097415566E-1,-1.221369863E0,-5.487536788E-1,1.374341578E0
1.742364220E0,3.268457651E-1,-1.201822162E0,-5.420341492E-1,1.358309862E0
1.744809220E0,3.451717198E-1,-1.166392088E0,-5.298168659E-1,1.326770489E0
1.747253386E0,3.647193909E-1,-1.107138157E0,-5.133234859E-1,1.273686042E0
1.749698334E0,3.836562037E-1,-1.022838831E0,-4.925541282E-1,1.198332561E0
1.752144115E0,4.025930166E-1,-9.116614461E-1,-4.675086737E-1,1.100805200E0
1.754589063E0,4.209189415E-1,-7.778820395E-1,-4.424632192E-1,9.889625489E-1
1.757033230E0,4.429100752E-1,-6.282202005E-1,-4.174177647E-1,8.746813965E-1
1.759478178E0,4.734533131E-1,-4.822235703E-1,-3.905397356E-1,7.805247572E-1
1.761923959E0,5.113269091E-1,-3.423355520E-1,-3.642725348E-1,7.150827349E-1
1.764368907E0,5.540874600E-1,-2.152756751E-1,-3.373945057E-1,6.835141419E-1
1.766813074E0,5.962371230E-1,-9.982223809E-2,-3.074621260E-1,6.782301564E-1
1.769258074E0,6.371650696E-1,-8.621537127E-4,-2.781406045E-1,6.952282108E-1
1.771703803E0,6.713734865E-1,8.465890586E-2,-2.494299561E-1,7.211967774E-1
1.774148803E0,6.994732618E-1,1.518540233E-1,-2.194975913E-1,7.486666020E-1
1.776592970E0,7.196317911E-1,2.013340741E-1,-1.901760846E-1,7.710851233E-1
1.779037917E0,7.275730371E-1,2.392076701E-1,-1.632980257E-1,7.831022149E-1
1.781483699E0,7.239078283E-1,2.673074305E-1,-1.376417130E-1,7.838629010E-1
1.783928647E0,7.086362243E-1,2.874659896E-1,-1.125962734E-1,7.729682492E-1
1.786372813E0,6.890885830E-1,2.941854894E-1,-9.121601284E-2,7.547903937E-1
1.788817761E0,6.677082777E-1,2.886877060E-1,-6.983573735E-2,7.307885918E-1
1.791263542E0,6.463280320E-1,2.703617513E-1,-4.723374173E-2,7.021868896E-1
1.793708490E0,6.273912191E-1,2.416511327E-1,-2.768607065E-2,6.728904296E-1
1.796152657E0,6.096761227E-1,2.080535740E-1,-8.138401434E-3,6.442495617E-1
1.798597657E0,5.962371230E-1,1.756777465E-1,1.140926965E-2,6.216844448E-1
1.801043386E0,5.821872354E-1,1.506322920E-1,3.217867017E-2,6.022188400E-1
1.803488386E0,5.711916685E-1,1.371932775E-1,5.355893821E-2,5.898732723E-1
1.805932553E0,5.614178181E-1,1.335280836E-1,7.555006444E-2,5.820030307E-1
1.808377501E0,5.528657436E-1,1.402475983E-1,9.998464584E-2,5.790741306E-1
1.810823230E0,5.443136096E-1,1.591843963E-1,1.231975108E-1,5.803400764E-1
1.813268230E0,5.375940800E-1,1.854515821E-1,1.439669281E-1,5.866226730E-1
1.815712397E0,5.296528339E-1,2.117187679E-1,1.647363305E-1,5.937129102E-1
1.818157345E0,5.198790431E-1,2.392076701E-1,1.818405390E-1,6.004669104E-1
1.820603126E0,5.094943047E-1,2.605879307E-1,1.971121579E-1,6.052633467E-1
1.823048074E0,4.966661930E-1,2.734161019E-1,2.081077248E-1,6.039391502E-1
1.825492240E0,4.826162755E-1,2.776921391E-1,2.197141498E-1,5.985864192E-1
1.827937188E0,4.655120671E-1,2.746378183E-1,2.276553959E-1,5.864762528E-1
1.830382970E0,4.453535378E-1,2.636422515E-1,2.343748957E-1,5.681360771E-1
1.832827917E0,4.239732623E-1,2.514249682E-1,2.404835522E-1,5.484525328E-1
1.835272084E0,3.989278078E-1,2.361533493E-1,2.478139251E-1,5.256648568E-1
1.837717084E0,3.744932115E-1,2.214926034E-1,2.581986189E-1,5.059354362E-1
1.840162813E0,3.494477570E-1,2.147730887E-1,2.698050439E-1,4.909541488E-1
1.842607813E0,3.219588697E-1,2.227143198E-1,2.850766480E-1,4.842807835E-1
1.845051980E0,2.920264900E-1,2.410402745E-1,3.034026027E-1,4.852144104E-1
1.847496928E0,2.645375729E-1,2.673074305E-1,3.266154528E-1,4.981074621E-1
1.849942709E0,2.425464541E-1,2.954072058E-1,3.547152281E-1,5.214567026E-1
1.852387657E0,2.278857082E-1,3.204526603E-1,3.822041452E-1,5.483628471E-1
1.854831824E0,2.181118727E-1,3.454981148E-1,4.145799875E-1,5.820810102E-1
1.857276772E0,2.113923579E-1,3.729870319E-1,4.493992627E-1,6.211004365E-1
1.859722553E0,2.010076642E-1,4.071954787E-1,4.860511422E-1,6.651751286E-1
1.862167501E0,1.906229556E-1,4.414038956E-1,5.239247680E-1,7.111059504E-1
1.864611667E0,1.777947992E-1,4.774449170E-1,5.624092817E-1,7.588602240E-1
1.867056667E0,1.625231802E-1,5.116533637E-1,6.027263403E-1,8.071443427E-1
1.869502397E0,1.435863823E-1,5.446400642E-1,6.418216825E-1,8.539232523E-1
1.871947397E0,1.222060993E-1,5.757941604E-1,6.815279126E-1,9.005295895E-1
1.874391563E0,9.899324179E-2,6.014505029E-1,7.194014788E-1,9.429108425E-1
1.876836511E0,7.394778728E-2,6.222198606E-1,7.566642761E-1,9.824289577E-1
1.879282292E0,5.317838863E-2,6.350480318E-1,7.902618051E-1,1.015198337E0
1.881727240E0,3.118725866E-2,6.423783898E-1,8.238593936E-1,1.045163595E0
1.884171407E0,1.041785814E-2,6.448218822E-1,8.544026017E-1,1.070470736E0
1.886616355E0,-9.740677662E-3,6.405458450E-1,8.837240934E-1,1.091495366E0
1.889062136E0,-3.051007912E-2,6.271067858E-1,9.106021523E-1,1.106069648E0
1.891507084E0,-4.944688454E-2,6.081699729E-1,9.362584949E-1,1.117540012E0
1.893951251E0,-7.021628320E-2,5.886223316E-1,9.594713449E-1,1.127826156E0
1.896396199E0,-9.648346901E-2,5.715181231E-1,9.808515906E-1,1.139303238E0
1.898841980E0,-1.313027442E-1,5.647985935E-1,9.997884035E-1,1.155774508E0
1.901286928E0,-1.697872281E-1,5.617442727E-1,1.014449000E0,1.171960368E0
1.903731095E0,-2.149912119E-1,5.593007803E-1,1.027888060E0,1.189786723E0
1.906176095E0,-2.589734793E-1,5.580790639E-1,1.036440134E0,1.205291523E0
1.908621824E0,-3.041774929E-1,5.544139147E-1,1.044381380E0,1.220914085E0
1.911066824E0,-3.475488722E-1,5.507487059E-1,1.049879193E0,1.235459702E0
1.913510990E0,-3.903093934E-1,5.507487059E-1,1.055987835E0,1.253305975E0
1.915955938E0,-4.269613028E-1,5.556356311E-1,1.059653044E0,1.270390287E0
1.918401720E0,-4.605588615E-1,5.672420263E-1,1.063929081E0,1.290667684E0
1.920846667E0,-4.898803532E-1,5.886223316E-1,1.068205118E0,1.314352002E0
1.923290834E0,-5.155366659E-1,6.179438233E-1,1.073092103E0,1.341327434E0
1.925735782E0,-5.320300460E-1,6.533739567E-1,1.079200745E0,1.369170458E0
1.928181563E0,-5.399712920E-1,6.906367540E-1,1.089585423E0,1.398479359E0
1.930626511E0,-5.381386876E-1,7.309538126E-1,1.101191878E0,1.427063515E0
1.933070678E0,-5.320300460E-1,7.712708712E-1,1.116463423E0,1.457533979E0
1.935515678E0,-5.259213448E-1,8.213617802E-1,1.133567691E0,1.495394311E0
1.937961407E0,-5.234779119E-1,8.787830472E-1,1.154947877E0,1.542787531E0
1.940406355E0,-5.216453075E-1,9.423130155E-1,1.178771615E0,1.596737350E0
1.942850574E0,-5.210344791E-1,9.972908497E-1,1.201984525E0,1.646460678E0
1.945295522E0,-5.149258375E-1,1.036386132E0,1.225197434E0,1.685334859E0
1.947741303E0,-5.112606287E-1,1.062653303E0,1.245355964E0,1.715089196E0
1.950186251E0,-5.094280243E-1,1.078535795E0,1.264292717E0,1.738157774E0
1.952630417E0,-5.112606287E-1,1.085255384E0,1.275899172E0,1.751309618E0
1.955075365E0,-5.112606287E-1,1.073037982E0,1.283840418E0,1.749583996E0
1.957521147E0,-5.124823451E-1,1.047992587E0,1.285062075E0,1.735601093E0
1.959966095E0,-5.137040615E-1,1.002177715E0,1.278953433E0,1.704105020E0
1.962410261E0,-5.155366659E-1,9.398695230E-1,1.269179583E0,1.661309600E0
1.964855261E0,-5.210344791E-1,8.708418012E-1,1.252686262E0,1.612161668E0
1.967300990E0,-5.332517624E-1,8.005923629E-1,1.228862524E0,1.560579596E0
1.969745938E0,-5.576863289E-1,7.352298498E-1,1.202595353E0,1.515853739E0
1.972190105E0,-5.918947458E-1,6.857498288E-1,1.171441317E0,1.480833203E0
1.974635105E0,-6.352661848E-1,6.460435987E-1,1.137843728E0,1.454518410E0
1.977080834E0,-6.810809970E-1,6.112242937E-1,1.101191878E0,1.431813540E0
1.979525834E0,-7.189546227E-1,5.696855187E-1,1.062096477E0,1.403383862E0
1.981970001E0,-7.427783608E-1,5.128750801E-1,1.018114209E0,1.360631134E0
1.984414949E0,-7.525522113E-1,4.401821494E-1,9.741321206E-1,1.307298185E0
1.986860730E0,-7.452217937E-1,3.571045697E-1,9.325932860E-1,1.246037492E0
1.989305678E0,-7.244524360E-1,2.624205351E-1,8.971631527E-1,1.182623182E0
1.991749845E0,-6.890222430E-1,1.561300755E-1,8.702850938E-1,1.120947990E0
1.994194792E0,-6.474834681E-1,4.861788452E-2,8.513482809E-1,1.070697173E0
1.996640574E0,-6.089989543E-1,-5.400738493E-2,8.403527141E-1,1.039225292E0
1.999085522E0,-5.851752758E-1,-1.376958489E-1,8.385201097E-1,1.031749109E0
2.001529688E0,-5.808991790E-1,-2.024475187E-1,8.409636021E-1,1.041944641E0
2.003974688E0,-5.918947458E-1,-2.629231215E-1,8.434070349E-1,1.063392394E0
2.006420417E0,-6.077772379E-1,-3.484441936E-1,8.434070349E-1,1.096422343E0
2.008865417E0,-6.193836927E-1,-4.626758993E-1,8.342440724E-1,1.137395410E0
2.011309584E0,-6.316009760E-1,-6.025639176E-1,8.153072596E-1,1.194457615E0
2.013754532E0,-6.389313340E-1,-7.638321519E-1,7.859857678E-1,1.268639599E0
2.016200313E0,-6.438182592E-1,-9.342634082E-1,7.475012541E-1,1.358715640E0
2.018645261E0,-6.450399756E-1,-1.102251291E0,6.998538375E-1,1.456306930E0
2.021089428E0,-6.493160725E-1,-1.248858809E0,6.454868913E-1,1.548519620E0
2.023534376E0,-6.505377889E-1,-1.368588209E0,5.856221318E-1,1.624557288E0
2.025980157E0,-6.523703933E-1,-1.452887535E0,5.227030516E-1,1.676212337E0
2.028425105E0,-6.535921097E-1,-1.499924183E0,4.579513669E-1,1.699021676E0
2.030869272E0,-6.480942965E-1,-1.507865429E0,3.858693242E-1,1.685995108E0
2.033314272E0,-6.364879012E-1,-1.479154825E0,3.107329905E-1,1.639991109E0
2.035760001E0,-6.132750511E-1,-1.420511723E0,2.325423062E-1,1.564620007E0
2.038204949E0,-5.778448582E-1,-1.334990740E0,1.512973011E-1,1.462530625E0
2.040649115E0,-5.295865536E-1,-1.222591639E0,6.760882586E-2,1.334077654E0
2.043094115E0,-4.721652865E-1,-1.086368799E0,-1.669050753E-2,1.184658516E0
2.045539845E0,-4.049701691E-1,-9.287656546E-1,-9.793551266E-2,1.017938035E0
2.047984845E0,-3.310555220E-1,-7.491714358E-1,-1.791805178E-1,8.384278483E-1
2.050429011E0,-2.516431212E-1,-5.567490458E-1,-2.537060380E-1,6.615591540E-1
2.052873959E0,-1.679546386E-1,-3.557745814E-1,-3.257880509E-1,5.108054106E-1
2.055319740E0,-7.999011874E-2,-1.511348784E-1,-3.911505938E-1,4.268945509E-1
2.057764688E0,4.920075648E-3,5.411566794E-2,-4.491827488E-1,4.524575720E-1
2.060208855E0,8.921940625E-2,2.532575428E-1,-5.017170906E-1,5.690514252E-1
2.062653803E0,1.686318219E-1,4.407930374E-1,-5.475319028E-1,7.228598604E-1
2.065099584E0,2.443790585E-1,6.118351817E-1,-5.890707374E-1,8.837803728E-1
2.067544532E0,3.121850193E-1,7.651622295E-1,-6.263334751E-1,1.036931216E0
2.069988699E0,3.732714951E-1,8.977198601E-1,-6.593201756E-1,1.174706623E0
2.072433699E0,4.264167249E-1,1.008897185E0,-6.892525554E-1,1.294130534E0
2.074879428E0,4.722315669E-1,1.098083496E0,-7.155197263E-1,1.393111085E0
2.077324428E0,5.088834763E-1,1.165278554E0,-7.381217480E-1,1.470258554E0
2.079768595E0,5.394266844E-1,1.210482597E0,-7.588911057E-1,1.527142749E0
2.082213542E0,5.638613105E-1,1.234917164E0,-7.772170901E-1,1.564297409E0
2.084659324E0,5.852415562E-1,1.239193201E0,-7.949321270E-1,1.584305701E0
2.087104272E0,5.999023318E-1,1.223310709E0,-8.083711863E-1,1.584246153E0
2.089548438E0,6.102870107E-1,1.193378448E0,-8.224210739E-1,1.572570755E0
2.091993386E0,6.194499731E-1,1.146341801E0,-8.370817900E-1,1.548716797E0
2.094439167E0,6.273912191E-1,1.077314138E0,-8.523533940E-1,1.510209192E0
2.096884115E0,6.304455400E-1,9.905712605E-1,-8.676250577E-1,1.459954192E0
2.099328282E0,6.292238235E-1,8.952764273E-1,-8.841183782E-1,1.406807666E0
2.101773230E0,6.188390851E-1,7.957054377E-1,-9.024443030E-1,1.352965143E0
2.104219011E0,5.968480110E-1,6.997997165E-1,-9.207702875E-1,1.301447315E0
2.106663959E0,5.614178181E-1,6.045048237E-1,-9.384853244E-1,1.249548219E0
2.109108178E0,5.204898715E-1,5.073773265E-1,-9.592547417E-1,1.203541074E0
2.111553126E0,4.813945591E-1,3.992542326E-1,-9.800241590E-1,1.162579897E0
2.113998907E0,4.484078586E-1,2.795247436E-1,-1.004458904E0,1.134963163E0
2.116443855E0,4.154211581E-1,1.591843963E-1,-1.024617434E0,1.117029675E0
2.118888022E0,3.854887784E-1,4.373096675E-2,-1.041721582E0,1.111619472E0
2.121332970E0,3.567781448E-1,-6.378121674E-2,-1.056382298E0,1.116826866E0
2.123778751E0,3.341761529E-1,-1.627413034E-1,-1.066767097E0,1.129668301E0
2.126223699E0,3.164610863E-1,-2.574253380E-1,-1.074097395E0,1.148956325E0
2.128667865E0,3.054655194E-1,-3.435572684E-1,-1.074708343E0,1.168904958E0
2.131112865E0,2.987459898E-1,-4.217479527E-1,-1.074097395E0,1.191975552E0
2.133558595E0,2.944699526E-1,-4.858887494E-1,-1.068599701E0,1.210250284E0
2.136003542E0,2.895830274E-1,-5.341470242E-1,-1.058214903E0,1.220241842E0
2.138447709E0,2.846961021E-1,-5.677446127E-1,-1.043554187E0,1.221634625E0
2.140892709E0,2.834743857E-1,-5.927900672E-1,-1.027671695E0,1.219781498E0
2.143338438E0,2.840852439E-1,-6.098942757E-1,-1.009345770E0,1.213035175E0
2.145783438E0,2.889721692E-1,-6.300528049E-1,-9.897980094E-1,1.208375584E0
2.148227605E0,2.987459898E-1,-6.489896178E-1,-9.671959877E-1,1.202457803E0
2.150672553E0,3.103524148E-1,-6.691481471E-1,-9.421505332E-1,1.196547321E0
2.153118334E0,3.250131905E-1,-6.874740720E-1,-9.164941907E-1,1.190888649E0
2.155563282E0,3.408956528E-1,-7.039674520E-1,-8.896161914E-1,1.184566160E0
2.158007449E0,3.555564284E-1,-7.167955637E-1,-8.639598489E-1,1.177558013E0
2.160452397E0,3.708280325E-1,-7.259585857E-1,-8.383035064E-1,1.169308371E0
2.162898178E0,3.848779202E-1,-7.284020185E-1,-8.157015443E-1,1.159340124E0
2.165343126E0,3.995386660E-1,-7.320672274E-1,-7.961538434E-1,1.153002391E0
2.167787292E0,4.154211581E-1,-7.338998318E-1,-7.814931273E-1,1.149745715E0
2.170232292E0,4.288601875E-1,-7.375649810E-1,-7.729409933E-1,1.151243215E0
2.172678022E0,4.404666126E-1,-7.418410182E-1,-7.680540681E-1,1.155095660E0
2.175123022E0,4.526838958E-1,-7.497822642E-1,-7.680540681E-1,1.164904805E0
2.177567188E0,4.618468881E-1,-7.607778311E-1,-7.741627097E-1,1.179581857E0
2.180012136E0,4.667337835E-1,-7.760494947E-1,-7.790496349E-1,1.194575898E0
2.182457865E0,4.697881341E-1,-7.937645316E-1,-7.894343734E-1,1.214071519E0
2.184902865E0,4.716207087E-1,-8.157556653E-1,-7.998190522E-1,1.235958703E0
2.187347032E0,4.697881341E-1,-8.377467990E-1,-8.083711863E-1,1.255382239E0
2.189791980E0,4.673446715E-1,-8.658465743E-1,-8.157015443E-1,1.278072902E0
2.192237761E0,4.642903507E-1,-8.902812004E-1,-8.218101859E-1,1.297512284E0
2.194682709E0,4.636794627E-1,-9.153266549E-1,-8.224210739E-1,1.314989716E0
2.197126876E0,4.624577463E-1,-9.354851842E-1,-8.181449771E-1,1.326032013E0
2.199571824E0,4.618468881E-1,-9.489241838E-1,-8.126472235E-1,1.331974161E0
2.202017605E0,4.649012089E-1,-9.544219971E-1,-8.077602983E-1,1.333990698E0
2.204462553E0,4.655120671E-1,-9.470915794E-1,-7.967647314E-1,1.322315387E0
2.206906720E0,4.710098505E-1,-9.275439382E-1,-7.851582766E-1,1.303327110E0
2.209351720E0,4.826162755E-1,-8.994441628E-1,-7.723301649E-1,1.280004748E0
2.211797449E0,5.027748346E-1,-8.634031415E-1,-7.546150684E-1,1.252074846E0
2.214242449E0,5.278202891E-1,-8.181991577E-1,-7.326239347E-1,1.218516290E0
2.216686615E0,5.571417809E-1,-7.540583611E-1,-7.063567638E-1,1.173861514E0
2.219131563E0,5.834089518E-1,-6.825871468E-1,-6.745917797E-1,1.123105199E0
2.221577345E0,6.115087271E-1,-6.037856340E-1,-6.367181540E-1,1.069537294E0
2.224022292E0,6.310564280E-1,-5.280383825E-1,-5.951793790E-1,1.015527076E0
2.226466459E0,6.695408821E-1,-4.388521612E-1,-5.493645072E-1,9.709158429E-1
2.228911407E0,6.799255610E-1,-3.741005063E-1,-5.066040158E-1,9.267672772E-1
2.231357188E0,6.982515454E-1,-2.977424264E-1,-4.626217484E-1,8.889458112E-1
2.233802136E0,7.025275826E-1,-2.317690253E-1,-4.216938317E-1,8.515207415E-1
2.236246303E0,6.945863366E-1,-1.694608182E-1,-3.874853849E-1,8.132109637E-1
2.238691303E0,6.903102994E-1,-1.193699092E-1,-3.544987142E-1,7.851412758E-1
2.241137032E0,6.664865613E-1,-9.310272336E-2,-3.306749761E-1,7.498122387E-1
2.243581980E0,6.640431285E-1,-8.455061913E-2,-3.031860590E-1,7.348631642E-1
2.246026199E0,6.414411068E-1,-1.077634841E-1,-2.781406045E-1,7.074050169E-1
2.248471147E0,6.396085024E-1,-1.425827742E-1,-2.475973815E-1,7.005236235E-1
2.250916876E0,6.194499731E-1,-1.963388622E-1,-2.146106660E-1,6.843427182E-1
2.253361876E0,6.090652943E-1,-2.439863086E-1,-1.773479134E-1,6.796632503E-1
2.255806042E0,5.889067650E-1,-2.965206802E-1,-1.388634443E-1,6.738091331E-1
2.258250990E0,5.565308928E-1,-3.282856643E-1,-9.976811707E-2,6.537979728E-1
2.260696772E0,5.247659683E-1,-3.453898728E-1,-6.006190553E-2,6.310950152E-1
2.263141720E0,4.752859175E-1,-3.569962978E-1,-2.463174798E-2,5.949367891E-1
2.265585886E0,4.447426796E-1,-3.606614769E-1,7.744081784E-3,5.726541039E-1
2.268030834E0,3.934300244E-1,-3.710461855E-1,3.278953582E-2,5.417911124E-1
2.270476615E0,3.677737117E-1,-3.722679317E-1,5.600239709E-2,5.262862191E-1
2.272921563E0,3.292892277E-1,-3.887612820E-1,7.371747494E-2,5.147824744E-1
2.275365730E0,3.091306984E-1,-3.960916400E-1,8.837822080E-2,5.101579029E-1
2.277810730E0,2.853069901E-1,-4.089198112E-1,1.024281085E-1,5.090255476E-1
2.280256459E0,2.694244981E-1,-4.125849903E-1,1.176997274E-1,5.066252660E-1
2.282701459E0,2.639267147E-1,-4.046437442E-1,1.341930926E-1,5.013996974E-1
2.285145626E0,2.498768270E-1,-3.844852149E-1,1.494647115E-1,4.822934886E-1
2.287590574E0,2.578180730E-1,-3.429464102E-1,1.702340990E-1,4.615864464E-1
2.290036355E0,2.468225062E-1,-2.946881056E-1,1.879491806E-1,4.278870454E-1
2.292481303E0,2.572071850E-1,-2.213843167E-1,2.081077248E-1,3.980896593E-1
2.294925470E0,2.480442226E-1,-1.505240053E-1,2.246010602E-1,3.669183135E-1
2.297370417E0,2.529311478E-1,-6.439208239E-2,2.398726791E-1,3.544847077E-1
2.299816199E0,2.529311478E-1,6.468222942E-3,2.520899773E-1,3.571629321E-1
2.302261147E0,2.529311478E-1,7.060901821E-2,2.618637979E-1,3.708536742E-1
2.304705313E0,2.614832520E-1,1.219216585E-1,2.698050439E-1,3.950103083E-1
2.307150313E0,2.517094314E-1,1.555192173E-1,2.716376483E-1,4.016601509E-1
2.309596042E0,2.620941103E-1,1.842298508E-1,2.765245438E-1,4.232018240E-1
2.312040990E0,2.474333644E-1,1.933928281E-1,2.789680064E-1,4.200561919E-1
2.314485209E0,2.529311478E-1,2.080535740E-1,2.844657898E-1,4.337986177E-1
2.316930157E0,2.358269542E-1,2.117187679E-1,2.924070358E-1,4.312088399E-1
2.319375886E0,2.315508872E-1,2.349316329E-1,3.040134609E-1,4.485898682E-1
2.321820886E0,2.156684101E-1,2.581444681E-1,3.223394156E-1,4.658906828E-1
2.324265053E0,1.973424703E-1,3.039593399E-1,3.431088030E-1,4.990580944E-1
2.326710001E0,1.784056574E-1,3.577154279E-1,3.681542575E-1,5.434394753E-1
2.329155782E0,1.625231802E-1,4.145258367E-1,3.968648911E-1,5.964454670E-1
2.331600730E0,1.533602029E-1,4.670602083E-1,4.267972708E-1,6.510149771E-1
2.334044897E0,1.503058821E-1,5.140967965E-1,4.573405087E-1,7.043065492E-1
2.336489845E0,1.478624344E-1,5.599116683E-1,4.909380674E-1,7.591999485E-1
2.338935626E0,1.460298300E-1,6.057265401E-1,5.275899768E-1,8.164438353E-1
2.341380574E0,1.417537779E-1,6.478762031E-1,5.636309981E-1,8.703548759E-1
2.343824740E0,1.362559944E-1,6.906367540E-1,6.008937359E-1,9.255366572E-1
2.346269740E0,1.246495619E-1,7.358407378E-1,6.393782496E-1,9.827530976E-1
2.348715470E0,1.112105399E-1,7.810447216E-1,6.803061366E-1,1.041736570E0
2.351160470E0,9.288459271E-2,8.305247426E-1,7.187906504E-1,1.102297099E0
2.353604636E0,7.394778728E-2,8.775613308E-1,7.572751045E-1,1.161485148E0
2.356049584E0,5.501098186E-2,9.166566730E-1,7.933161259E-1,1.213522204E0
2.358495365E0,3.668504208E-2,9.496433735E-1,8.281354308E-1,1.260546160E0
2.360940313E0,1.530477498E-2,9.710236788E-1,8.623438478E-1,1.298752529E0
2.363384480E0,-7.908083498E-3,9.856843948E-1,8.928871155E-1,1.329993859E0
2.365829428E0,-3.539699689E-2,9.930148125E-1,9.215977192E-1,1.355239359E0
2.368275209E0,-6.594023108E-2,9.838517904E-1,9.515300989E-1,1.370299963E0
2.370720157E0,-9.587260336E-2,9.600280523E-1,9.777972698E-1,1.373656769E0
2.373164324E0,-1.300810128E-1,9.258196354E-1,1.000399232E0,1.369255889E0
2.375609324E0,-1.710089594E-1,8.842808604E-1,1.019946814E0,1.360694017E0
2.378055053E0,-2.180455476E-1,8.445746303E-1,1.035829306E0,1.354175955E0
2.380500053E0,-2.711907923E-1,8.030358553E-1,1.048657417E0,1.348366942E0
2.382944220E0,-3.273903430E-1,7.584426999E-1,1.058431268E0,1.342645342E0
2.385389167E0,-3.866442144E-1,7.156821489E-1,1.065150857E0,1.340239171E0
2.387834897E0,-4.446763694E-1,6.710890532E-1,1.068816066E0,1.338082723E0
2.390279897E0,-4.978215992E-1,6.326045990E-1,1.071870327E0,1.340492790E0
2.392724063E0,-5.503559709E-1,6.014505029E-1,1.074924707E0,1.349109902E0
2.395169011E0,-5.973925591E-1,5.806810856E-1,1.077978969E0,1.362390197E0
2.397614792E0,-6.364879012E-1,5.678529143E-1,1.082865953E0,1.378467429E0
2.400059740E0,-6.694746017E-1,5.635768771E-1,1.089585423E0,1.397501890E0
2.402503907E0,-6.951308846E-1,5.678529143E-1,1.100580931E0,1.420190925E0
2.404948855E0,-7.177329063E-1,5.776267648E-1,1.114630818E0,1.446096492E0
2.407394636E0,-7.330045104E-1,5.904549360E-1,1.128069878E0,1.469174698E0
2.409839584E0,-7.440000772E-1,6.038939357E-1,1.142730594E0,1.491327332E0
2.412283751E0,-7.513304353E-1,6.191655397E-1,1.158002257E0,1.512888832E0
2.414728751E0,-7.598825693E-1,6.368806362E-1,1.172662973E0,1.535635671E0
2.417174480E0,-7.678238153E-1,6.509305239E-1,1.187934637E0,1.557065400E0
2.419619480E0,-7.763758898E-1,6.607043743E-1,1.203206301E0,1.577020987E0
2.422063647E0,-7.879823446E-1,6.668130159E-1,1.216034412E0,1.595084783E0
2.424508595E0,-8.001996279E-1,6.716999412E-1,1.227029920E0,1.611552878E0
2.426954376E0,-8.154712319E-1,6.692564487E-1,1.233138561E0,1.622814911E0
2.429399324E0,-8.307428956E-1,6.607043743E-1,1.237414718E0,1.630294210E0
2.431843490E0,-8.447927833E-1,6.466544867E-1,1.238025546E0,1.632343139E0
2.434288438E0,-8.576208949E-1,6.258850694E-1,1.234971166E0,1.628618893E0
2.436734220E0,-8.698382378E-1,6.087808609E-1,1.228862524E0,1.623987623E0
2.439179167E0,-8.838881254E-1,5.916766524E-1,1.220921278E0,1.619255461E0
2.441623334E0,-8.979380131E-1,5.800701976E-1,1.210536599E0,1.614983891E0
2.444068334E0,-9.107661247E-1,5.702963471E-1,1.197097540E0,1.608656389E0
2.446514063E0,-9.211508632E-1,5.635768771E-1,1.182436824E0,1.601341516E0
2.448959011E0,-9.205399752E-1,5.440291762E-1,1.165332675E0,1.581569421E0
2.451403178E0,-9.016031623E-1,5.073773265E-1,1.148228407E0,1.545557662E0
2.453848178E0,-8.765577078E-1,4.578972459E-1,1.129902482E0,1.501566822E0
2.456293907E0,-8.423492908E-1,4.053628743E-1,1.114019990E0,1.454273676E0
2.458738907E0,-8.026431203E-1,3.424437940E-1,1.101191878E0,1.405036399E0
2.461183074E0,-7.641586065E-1,2.746378183E-1,1.088974595E0,1.358392423E0
2.463628022E0,-7.293393016E-1,2.049992532E-1,1.078589797E0,1.318073010E0
2.466073803E0,-7.097916603E-1,1.408584565E-1,1.070648551E0,1.292259117E0
2.468518751E0,-7.061264515E-1,8.465890586E-2,1.062096477E0,1.278213840E0
2.470962917E0,-7.152894139E-1,2.235070802E-2,1.048657417E0,1.269575078E0
2.473407865E0,-7.293393016E-1,-5.095306411E-2,1.029720664E0,1.262876351E0
2.475853647E0,-7.391131520E-1,-1.493022740E-1,1.002842784E0,1.254700390E0
2.478298595E0,-7.452217937E-1,-2.696426511E-1,9.643582702E-1,1.248218552E0
2.480742761E0,-7.427783608E-1,-4.040328860E-1,9.173216820E-1,1.247574180E0
2.483187761E0,-7.385023236E-1,-5.426991582E-1,8.623438478E-1,1.258389832E0
2.485633490E0,-7.323936224E-1,-6.722024679E-1,8.000356555E-1,1.276053928E0
2.488078490E0,-7.238415480E-1,-7.864341736E-1,7.303970456E-1,1.294567549E0
2.490522657E0,-7.128459811E-1,-8.817290664E-1,6.589258909E-1,1.311403397E0
2.492967605E0,-7.030721307E-1,-9.544219971E-1,5.856221318E-1,1.322189491E0
2.495413334E0,-6.902439594E-1,-1.001458526E0,5.123183727E-1,1.319782564E0
2.497858334E0,-6.731397510E-1,-1.027114868E0,4.365711212E-1,1.303332813E0
2.500302501E0,-6.480942965E-1,-1.032001853E0,3.596021533E-1,1.270577723E0
2.502747449E0,-6.169402003E-1,-1.015508413E0,2.814114690E-1,1.221091710E0
2.505193230E0,-5.772340298E-1,-9.764130712E-1,2.007773370E-1,1.151908481E0
2.507638178E0,-5.308082700E-1,-9.196026921E-1,1.183106005E-1,1.068374433E0
2.510082345E0,-4.746087492E-1,-8.456880450E-1,3.462213278E-2,9.703815880E-1
2.512527345E0,-4.129114151E-1,-7.534474730E-1,-5.089893192E-2,8.606797503E-1
2.514973074E0,-3.469380140E-1,-6.477679014E-1,-1.345873922E-1,7.470495337E-1
2.517418022E0,-2.736342549E-1,-5.292600989E-1,-2.207193226E-1,6.353809701E-1
2.519862240E0,-1.972761452E-1,-4.022002816E-1,-3.056295216E-1,5.423028199E-1
2.522307188E0,-1.184745952E-1,-2.684209049E-1,-3.850419521E-1,4.840901949E-1
2.524752917E0,-4.150564224E-2,-1.303654760E-1,-4.583457112E-1,4.783290360E-1
2.527197917E0,3.485244513E-2,1.013340987E-2,-5.243190527E-1,5.255738273E-1
2.529642084E0,1.093779430E-1,1.512431651E-1,-5.829620957E-1,6.121134164E-1
2.532087032E0,1.802382618E-1,2.868551016E-1,-6.306095123E-1,7.158491722E-1
2.534532813E0,2.456007898E-1,4.188019037E-1,-6.733700633E-1,8.301457852E-1
2.536977761E0,3.060763776E-1,5.397531390E-1,-7.081893682E-1,9.415669819E-1
2.539421928E0,3.622759283E-1,6.515413523E-1,-7.381217480E-1,1.049082312E0
2.541866876E0,4.135885537E-1,7.462254167E-1,-7.643889189E-1,1.145512236E0
2.544312657E0,4.612360001E-1,8.250269890E-1,-7.863800526E-1,1.229553483E0
2.546757605E0,5.039965510E-1,8.867242932E-1,-8.059276938E-1,1.299927669E0
2.549201772E0,5.455353260E-1,9.313174486E-1,-8.254753947E-1,1.358812205E0
2.551646772E0,5.815763474E-1,9.581954479E-1,-8.431904316E-1,1.402618861E0
2.554092501E0,6.127304435E-1,9.673584700E-1,-8.596838117E-1,1.431878927E0
2.556537501E0,6.371650696E-1,9.673584700E-1,-8.773988485E-1,1.453131265E0
2.558981667E0,6.542692780E-1,9.557520151E-1,-8.938922286E-1,1.463069895E0
2.561426615E0,6.664865613E-1,9.307065606E-1,-9.097747207E-1,1.462227438E0
2.563872345E0,6.719843149E-1,8.940546513E-1,-9.293223619E-1,1.454144660E0
2.566317345E0,6.725952029E-1,8.464072347E-1,-9.513134956E-1,1.440064888E0
2.568761511E0,6.670974493E-1,7.798229456E-1,-9.751372337E-1,1.415639593E0
2.571206459E0,6.591562033E-1,7.034648657E-1,-1.002626300E0,1.390902302E0
2.573652240E0,6.463280320E-1,6.155003905E-1,-1.033780336E0,1.365753433E0
2.576097188E0,6.292238235E-1,5.147076845E-1,-1.064934492E0,1.339750758E0
2.578541355E0,6.090652943E-1,4.065845907E-1,-1.099142909E0,1.320752322E0
2.580986303E0,5.858524442E-1,2.929637730E-1,-1.131518722E0,1.307434693E0
2.583432084E0,5.620287061E-1,1.830081195E-1,-1.163283706E0,1.304836089E0
2.585877032E0,5.345397592E-1,7.793939114E-2,-1.191994309E0,1.308685499E0
2.588321199E0,5.052182674E-1,-1.491204090E-2,-1.214596272E0,1.315565266E0
2.590766199E0,4.771184921E-1,-9.798964858E-2,-1.230478764E0,1.323375236E0
2.593211928E0,4.514621794E-1,-1.688499600E-1,-1.238420010E0,1.328914041E0
2.595656928E0,4.355796874E-1,-2.305472940E-1,-1.240863562E0,1.335149466E0
2.598101095E0,4.276384413E-1,-2.812490761E-1,-1.234143972E0,1.336071489E0
2.600546042E0,4.288601875E-1,-3.209552765E-1,-1.218261480E0,1.330824701E0
2.602991824E0,4.374122918E-1,-3.484441936E-1,-1.196270347E0,1.320532321E0
2.605436772E0,4.484078586E-1,-3.643266857E-1,-1.168781519E0,1.303784407E0
2.607880938E0,4.618468881E-1,-3.679918647E-1,-1.134573102E0,1.279053042E0
2.610325886E0,4.740641713E-1,-3.643266857E-1,-1.094866872E0,1.247479154E0
2.612771667E0,4.868923426E-1,-3.576071560E-1,-1.052717209E0,1.213738256E0
2.615216615E0,4.978879094E-1,-3.582180440E-1,-1.006902337E0,1.179010116E0
2.617660782E0,5.070508718E-1,-3.655484021E-1,-9.580330253E-1,1.143920233E0
2.620105782E0,5.143812299E-1,-3.814308941E-1,-9.097747207E-1,1.112550052E0
2.622551511E0,5.162138343E-1,-4.028111696E-1,-8.621272445E-1,1.082588078E0
2.624996511E0,5.137704015E-1,-4.315218031E-1,-8.144798279E-1,1.055248067E0
2.627440678E0,5.082725883E-1,-4.663410783E-1,-7.704975605E-1,1.034157394E0
2.629885626E0,5.027748346E-1,-5.115450621E-1,-7.320130467E-1,1.024843396E0
2.632331355E0,4.972770214E-1,-5.616359711E-1,-6.984155178E-1,1.024940796E0
2.634776355E0,4.917792380E-1,-6.178355217E-1,-6.715374589E-1,1.036595442E0
2.637220522E0,4.856705964E-1,-6.740350723E-1,-6.519898176E-1,1.056072881E0
2.639665470E0,4.777293503E-1,-7.277911305E-1,-6.379399300E-1,1.079292646E0
2.642111251E0,4.667337835E-1,-7.778820395E-1,-6.299986839E-1,1.104463324E0
2.644556199E0,4.545165002E-1,-8.255295157E-1,-6.263334751E-1,1.131537826E0
2.647000365E0,4.398557544E-1,-8.713443875E-1,-6.251117587E-1,1.159085345E0
2.649445313E0,4.258058667E-1,-9.177700877E-1,-6.251117587E-1,1.189275948E0
2.651891095E0,4.141994417E-1,-9.617523551E-1,-6.232791543E-1,1.218608089E0
2.654336042E0,4.050364494E-1,-1.000236869E0,-6.220574379E-1,1.245585716E0
2.656780209E0,3.983169496E-1,-1.033223510E0,-6.153379083E-1,1.266825937E0
2.659225209E0,3.946517706E-1,-1.060101509E0,-6.061749458E-1,1.283360158E0
2.661670938E0,3.995386660E-1,-1.071707964E0,-5.915141702E-1,1.287663822E0
2.664115886E0,4.099233747E-1,-1.079038382E0,-5.756316781E-1,1.289849926E0
2.666560105E0,4.300819039E-1,-1.077816606E0,-5.579166412E-1,1.287606329E0
2.669005053E0,4.526838958E-1,-1.067431927E0,-5.383689404E-1,1.278348444E0
2.671450834E0,4.771184921E-1,-1.044829965E0,-5.200430155E-1,1.260855443E0
2.673895782E0,4.991096258E-1,-1.011232376E0,-5.059931278E-1,1.236013909E0
2.676339949E0,5.174355507E-1,-9.727479219E-1,-4.968301952E-1,1.208643170E0
2.678784897E0,5.345397592E-1,-9.324308634E-1,-4.919432700E-1,1.182018718E0
2.681230678E0,5.485896468E-1,-8.951680660E-1,-4.925541282E-1,1.159692216E0
2.683675626E0,5.614178181E-1,-8.597379327E-1,-4.962193072E-1,1.140426622E0
2.686119792E0,5.718025565E-1,-8.285838366E-1,-4.986627996E-1,1.123465142E0
2.688564792E0,5.840198398E-1,-8.023166656E-1,-4.986627996E-1,1.110610550E0
2.691010522E0,5.974588394E-1,-7.797146440E-1,-4.925541282E-1,1.098872859E0
2.693455470E0,6.115087271E-1,-7.565017939E-1,-4.821694195E-1,1.085691133E0
2.695899688E0,6.267803311E-1,-7.265694141E-1,-4.626217484E-1,1.065258457E0
2.698344636E0,6.414411068E-1,-6.844197512E-1,-4.400197566E-1,1.036095785E0
2.700790365E0,6.542692780E-1,-6.263875961E-1,-4.119199812E-1,9.950415970E-1
2.703235365E0,6.658756733E-1,-5.543055534E-1,-3.838202059E-1,9.476091015E-1
2.705679532E0,6.750386953E-1,-4.712280035E-1,-3.569421768E-1,8.972963775E-1
2.708124480E0,6.866450906E-1,-3.863178194E-1,-3.300641179E-1,8.542044602E-1
2.710570261E0,7.019166946E-1,-3.075162470E-1,-3.007425964E-1,8.232249982E-1
2.713015209E0,7.196317911E-1,-2.421537191E-1,-2.738645673E-1,8.071617803E-1
2.715459376E0,7.385686040E-1,-1.883976310E-1,-2.445430607E-1,8.004864513E-1
2.717904324E0,7.593380213E-1,-1.450262219E-1,-2.127780765E-1,8.018112904E-1
2.720350105E0,7.752204537E-1,-1.157047153E-1,-1.797913760E-1,8.041637096E-1
2.722795053E0,7.849943042E-1,-9.676791728E-2,-1.437503546E-1,8.038931844E-1
2.725239220E0,7.898812294E-1,-9.065926075E-2,-1.070984900E-1,8.022478075E-1
2.727684220E0,7.874377966E-1,-9.615704417E-2,-6.922487915E-2,7.963017924E-1
2.730129949E0,7.776639462E-1,-1.138721257E-1,-3.501644731E-2,7.867364398E-1
2.732574949E0,7.617814541E-1,-1.419719011E-1,-6.916671991E-3,7.749289289E-1
2.735019115E0,7.355142832E-1,-1.749586016E-1,1.446359418E-2,7.561752235E-1
2.737464063E0,7.006949782E-1,-2.183299959E-1,3.340040147E-2,7.346815817E-1
2.739909792E0,6.597670317E-1,-2.714752257E-1,4.622856155E-2,7.149324543E-1
2.742354792E0,6.182282567E-1,-3.392812312E-1,5.172634125E-2,7.071022172E-1
2.744798959E0,5.742459893E-1,-4.119741321E-1,5.478066579E-2,7.088596921E-1
2.747243907E0,5.308746099E-1,-4.901648164E-1,5.661325902E-2,7.247720054E-1
2.749689688E0,4.875032008E-1,-5.677446127E-1,5.661325902E-2,7.504654403E-1
2.752134636E0,4.459643960E-1,-6.386048794E-1,5.600239709E-2,7.809204204E-1
2.754578803E0,4.056473374E-1,-7.033565640E-1,5.416980386E-2,8.137533940E-1
2.757023751E0,3.659411073E-1,-7.485605478E-1,5.294807255E-2,8.349007642E-1
2.759469532E0,3.317326903E-1,-7.766603231E-1,5.172634125E-2,8.461225974E-1
2.761914480E0,3.030220568E-1,-7.839907408E-1,5.355893821E-2,8.422187414E-1
2.764358647E0,2.810309231E-1,-7.754386067E-1,5.600239709E-2,8.266920110E-1
2.766803647E0,2.675918937E-1,-7.491714358E-1,6.027844921E-2,7.978074663E-1
2.769249376E0,2.559854686E-1,-7.064108849E-1,6.455450505E-2,7.541300833E-1
2.771694376E0,2.504876852E-1,-6.496004462E-1,6.760882586E-2,6.994968002E-1
2.774138542E0,2.480442226E-1,-5.805727839E-1,6.944142282E-2,6.351478608E-1
2.776583490E0,2.462116480E-1,-5.029929280E-1,7.005228102E-2,5.643840743E-1
2.779029272E0,2.492659688E-1,-4.266348779E-1,6.699796021E-2,4.986377131E-1
2.781474220E0,2.565963268E-1,-3.533311188E-1,6.455450505E-2,4.414202517E-1
2.783918386E0,2.663701773E-1,-2.879685760E-1,6.150017679E-2,3.970657928E-1
2.786363334E0,2.773657441E-1,-2.232169062E-1,5.905672163E-2,3.608950534E-1
2.788809115E0,2.883613110E-1,-1.560217887E-1,6.211104244E-2,3.336957084E-1
2.791254063E0,2.950808108E-1,-8.027456701E-2,7.005228102E-2,3.137260159E-1
2.793698230E0,2.950808108E-1,1.196600683E-2,8.593475819E-2,3.075721913E-1
2.796143230E0,2.908047438E-1,1.145912707E-1,1.079258919E-1,3.306759085E-1
2.798588959E0,2.859178483E-1,2.233252078E-1,1.390800029E-1,3.885439636E-1
2.801033907E0,2.853069901E-1,3.338916898E-1,1.769536138E-1,4.734937387E-1
2.803478126E0,2.877504230E-1,4.395712912E-1,2.197141498E-1,5.694712755E-1
2.805923074E0,2.926373482E-1,5.354771018E-1,2.667507231E-1,6.659791982E-1
2.808368803E0,2.999677360E-1,6.234415770E-1,3.211176693E-1,7.627428139E-1
2.810813803E0,3.127958775E-1,6.930801868E-1,3.773172200E-1,8.488637646E-1
2.813257970E0,3.237914443E-1,7.419493794E-1,4.329059124E-1,9.180072495E-1
2.815702917E0,3.353978693E-1,7.724925876E-1,4.866620302E-1,9.726646186E-1
2.818148699E0,3.402847946E-1,7.932620049E-1,5.367529392E-1,1.016445802E0
2.820593647E0,3.329544365E-1,8.042575717E-1,5.856221318E-1,1.049114951E0
2.823037813E0,3.121850193E-1,8.097553253E-1,6.253283620E-1,1.069672255E0
2.825482761E0,2.804200649E-1,7.981489301E-1,6.570932865E-1,1.071190326E0
2.827928542E0,2.370486706E-1,7.737143040E-1,6.784735918E-1,1.056007723E0
2.830373490E0,1.765730679E-1,7.474471331E-1,6.925234795E-1,1.034139272E0
2.832817657E0,1.044910252E-1,7.199582458E-1,6.992429495E-1,1.009058448E0
2.835262657E0,2.813293412E-2,6.790302992E-1,6.974104047E-1,9.737837962E-1
2.837708386E0,-4.455996677E-2,6.319937110E-1,6.900799870E-1,9.368094950E-1
2.840153386E0,-1.154202744E-1,5.867897272E-1,6.827496290E-1,9.076293735E-1
2.842597553E0,-1.777284741E-1,5.531921387E-1,6.760300994E-1,8.914177742E-1
2.845042501E0,-2.351497561E-1,5.391422510E-1,6.693105698E-1,8.910367071E-1
2.847488282E0,-2.815755010E-1,5.470834970E-1,6.662562490E-1,9.069082119E-1
2.849933230E0,-3.212817013E-1,5.721289515E-1,6.650345325E-1,9.342507149E-1
2.852377397E0,-3.524357975E-1,6.161112189E-1,6.680888534E-1,9.747547083E-1
2.854822345E0,-3.725943267E-1,6.778085828E-1,6.748083830E-1,1.026458650E0
2.857268126E0,-3.878659606E-1,7.517231703E-1,6.839713454E-1,1.087816404E0
2.859713074E0,-4.013049603E-1,8.402985930E-1,6.992429495E-1,1.164511957E0
2.862157240E0,-4.092462063E-1,9.368152022E-1,7.145146132E-1,1.247251503E0
2.864602188E0,-4.116896689E-1,1.037607908E0,7.352839708E-1,1.336697824E0
2.867047970E0,-4.147439897E-1,1.135957122E0,7.597185969E-1,1.428139876E0
2.869492917E0,-4.165765941E-1,1.231862903E0,7.835422754E-1,1.518209724E0
2.871937084E0,-4.202417731E-1,1.323492527E0,8.091986179E-1,1.607183257E0
2.874382084E0,-4.239069521E-1,1.404126763E0,8.360766768E-1,1.688281162E0
2.876827813E0,-4.220743775E-1,1.465824008E0,8.635655642E-1,1.752864024E0
2.879272813E0,-4.153548479E-1,1.498810768E0,8.861675858E-1,1.790040882E0
2.881716980E0,-4.068027437E-1,1.507973671E0,9.087695479E-1,1.807023839E0
2.884161928E0,-4.049701691E-1,1.505530238E0,9.277063608E-1,1.814183350E0
2.886607709E0,-4.092462063E-1,1.488426089E0,9.441997409E-1,1.809532490E0
2.889052657E0,-4.257395566E-1,1.460937142E0,9.588604569E-1,1.798611931E0
2.891496824E0,-4.513958693E-1,1.426728725E0,9.704669118E-1,1.783569206E0
2.893941772E0,-4.904912114E-1,1.383357286E0,9.747429490E-1,1.761925886E0
2.896387553E0,-5.326408744E-1,1.326546907E0,9.735212326E-1,1.729501833E0
2.898832501E0,-5.766231418E-1,1.250799656E0,9.661908746E-1,1.682414584E0
2.901276667E0,-6.169402003E-1,1.160391688E0,9.496974945E-1,1.621434369E0
2.903721667E0,-6.529812217E-1,1.055933833E0,9.295389652E-1,1.550942753E0
2.906167397E0,-6.816918850E-1,9.465890527E-1,9.032717943E-1,1.475342196E0
2.908612345E0,-7.061264515E-1,8.372442722E-1,8.745611310E-1,1.401588281E0
2.911056563E0,-7.268958688E-1,7.352298498E-1,8.452396393E-1,1.335428989E0
2.913501511E0,-7.427783608E-1,6.423783898E-1,8.146964312E-1,1.275970205E0
2.915947240E0,-7.513304353E-1,5.556356311E-1,7.902618051E-1,1.223822740E0
2.918392240E0,-7.525522113E-1,4.725579917E-1,7.682706714E-1,1.174685367E0
2.920836407E0,-7.409457564E-1,3.882586658E-1,7.499447465E-1,1.123460070E0
2.923281355E0,-7.171220183E-1,2.929637730E-1,7.352839708E-1,1.068051628E0
2.925727136E0,-6.816918850E-1,1.878950447E-1,7.248992920E-1,1.012663497E0
2.928172084E0,-6.413748264E-1,7.977199554E-2,7.218449712E-1,9.689093878E-1
2.930616251E0,-6.102207303E-1,-1.307944767E-2,7.200123668E-1,9.439058321E-1
2.933061199E0,-5.937273502E-1,-8.821580559E-2,7.181797624E-1,9.359895116E-1
2.935506980E0,-5.925056338E-1,-1.572435200E-1,7.187906504E-1,9.446948977E-1
2.937951928E0,-5.949490666E-1,-2.299364209E-1,7.114602923E-1,9.555160371E-1
2.940396095E0,-5.973925591E-1,-3.197335601E-1,6.980212331E-1,9.728006275E-1
2.942841042E0,-5.998359919E-1,-4.260240197E-1,6.723649502E-1,9.966816486E-1
2.945286824E0,-5.967816710E-1,-5.463643074E-1,6.363239288E-1,1.029354391E0
2.947731772E0,-5.925056338E-1,-6.722024679E-1,5.880655646E-1,1.071792980E0
2.950175990E0,-5.851752758E-1,-7.974297404E-1,5.324769020E-1,1.123323616E0
2.952620938E0,-5.754014254E-1,-9.067745209E-1,4.683360755E-1,1.171608088E0
2.955066667E0,-5.668492913E-1,-9.959607720E-1,3.986974955E-1,1.213348949E0
2.957511667E0,-5.564646125E-1,-1.058879852E0,3.278371990E-1,1.240305057E0
2.959955834E0,-5.436364412E-1,-1.094310045E0,2.533116937E-1,1.247886962E0
2.962400782E0,-5.259213448E-1,-1.099807739E0,1.806188077E-1,1.232393394E0
2.964846563E0,-5.057628155E-1,-1.078427553E0,1.085367650E-1,1.196069497E0
2.967291511E0,-4.782739282E-1,-1.033223510E0,3.645472229E-2,1.139133758E0
2.969735678E0,-4.446763694E-1,-9.648066759E-1,-3.135126084E-2,1.062813199E0
2.972180626E0,-4.043592811E-1,-8.768421412E-1,-9.365946054E-2,9.701188913E-1
2.974626407E0,-3.573227227E-1,-7.723842859E-1,-1.523024589E-1,8.645536723E-1
2.977071355E0,-3.066209257E-1,-6.508222222E-1,-2.078911513E-1,7.488689390E-1
2.979515522E0,-2.491996437E-1,-5.200971365E-1,-2.573712170E-1,6.315389435E-1
2.981960522E0,-1.899457574E-1,-3.783765733E-1,-3.025752008E-1,5.203844484E-1
2.984406251E0,-1.270266920E-1,-2.323798835E-1,-3.435031474E-1,4.337402483E-1
2.986851251E0,-6.288591027E-2,-8.271802962E-2,-3.795441687E-1,3.935107192E-1
2.989295417E0,-1.188571565E-3,6.633296609E-2,-4.088656604E-1,4.142132342E-1
2.991740365E0,6.050876528E-2,2.080535740E-1,-4.363545775E-1,4.871887906E-1
2.994186147E0,1.215952411E-1,3.430546820E-1,-4.595674276E-1,5.862372711E-1
2.996631095E0,1.796273887E-1,4.664493501E-1,-4.791150987E-1,6.923815948E-1
2.999075261E0,2.352160811E-1,5.764050484E-1,-4.968301952E-1,7.964983537E-1
3.001520209E0,2.877504230E-1,6.723107696E-1,-5.096583366E-1,8.913774155E-1
3.003965990E0,3.341761529E-1,7.529449463E-1,-5.200430155E-1,9.741891661E-1
3.006410938E0,3.775475621E-1,8.207508922E-1,-5.279842615E-1,1.046394557E0
3.008855105E0,4.148102999E-1,8.757287264E-1,-5.353146195E-1,1.107036643E0
3.011300053E0,4.441317916E-1,9.233762026E-1,-5.402015448E-1,1.158315315E0
3.013745834E0,4.691772461E-1,9.581954479E-1,-5.450884700E-1,1.198076477E0
3.016190782E0,4.844488800E-1,9.869061708E-1,-5.505862236E-1,1.229560774E0
3.018634949E0,4.978879094E-1,1.004010320E0,-5.554731488E-1,1.250791554E0
3.021079949E0,5.058291554E-1,1.011340737E0,-5.621926785E-1,1.262827712E0
3.023525678E0,5.107160807E-1,1.005232096E0,-5.701339245E-1,1.263477413E0
3.025970678E0,5.137704015E-1,9.881278276E-1,-5.780751705E-1,1.254801790E0
3.028414845E0,5.125486255E-1,9.600280523E-1,-5.841838121E-1,1.235164232E0
3.030859792E0,5.082725883E-1,9.197109938E-1,-5.890707374E-1,1.204663301E0
3.033305574E0,5.009422302E-1,8.726744056E-1,-5.927358866E-1,1.167835420E0
3.035750522E0,4.881140590E-1,8.140314221E-1,-5.933467746E-1,1.119358247E0
3.038194688E0,4.710098505E-1,7.480580211E-1,-5.921250582E-1,1.063979871E0
3.040639636E0,4.471861124E-1,6.765868068E-1,-5.927358866E-1,1.004530217E0
3.043085417E0,4.227515459E-1,5.941200852E-1,-5.896815658E-1,9.377749699E-1
3.045530365E0,3.915974498E-1,5.055447221E-1,-5.884598494E-1,8.690276307E-1
3.047974532E0,3.549455404E-1,4.096389115E-1,-5.866272449E-1,7.987001308E-1
3.050419532E0,3.170719445E-1,3.039593399E-1,-5.878490210E-1,7.338203934E-1
3.052865261E0,2.755331397E-1,1.909493655E-1,-5.902924538E-1,6.788411834E-1
3.055310209E0,2.327726185E-1,7.183074951E-2,-5.939576626E-1,6.419723152E-1
3.057754428E0,1.875686347E-1,-5.339651927E-2,-6.000663042E-1,6.309617662E-1
3.060199376E0,1.405320466E-1,-1.804563850E-1,-6.061749458E-1,6.478902901E-1
3.062645105E0,9.777151048E-2,-3.099597096E-1,-6.110618711E-1,6.921205821E-1
3.065090105E0,5.440011621E-2,-4.370195866E-1,-6.135053039E-1,7.552047733E-1
3.067534272E0,1.774823293E-2,-5.530838370E-1,-6.147270203E-1,8.271070306E-1
3.069979220E0,-1.646018960E-2,-6.581525803E-1,-6.098401546E-1,8.974078064E-1
3.072425001E0,-4.578169435E-2,-7.418410182E-1,-6.006771326E-1,9.556343848E-1
3.074869949E0,-6.594023108E-2,-8.078144193E-1,-5.878490210E-1,1.001238594E0
3.077314115E0,-7.815752923E-2,-8.554618955E-1,-5.683013201E-1,1.029995167E0
3.079759063E0,-8.121185005E-2,-8.835616708E-1,-5.487536788E-1,1.043267555E0
3.082204845E0,-7.327061146E-2,-8.976115584E-1,-5.267625451E-1,1.043337851E0
3.084649792E0,-5.616639555E-2,-9.000549912E-1,-5.029388070E-1,1.032570140E0
3.087093959E0,-3.356440365E-2,-8.939463496E-1,-4.766716361E-1,1.013648111E0
3.089538959E0,-7.908083498E-3,-8.835616708E-1,-4.516261816E-1,9.923255372E-1
3.091984688E0,1.835909858E-2,-8.676791787E-1,-4.259698689E-1,9.667753322E-1
3.094429688E0,4.035022855E-2,-8.505749702E-1,-4.009244144E-1,9.411940857E-1
3.096873803E0,5.928703398E-2,-8.291947246E-1,-3.771007061E-1,9.128437907E-1
3.099318803E0,7.700211555E-2,-8.102579117E-1,-3.569421768E-1,8.887378280E-1
3.101764532E0,9.227373451E-2,-7.937645316E-1,-3.428922594E-1,8.695698220E-1
3.104209532E0,1.075453460E-1,-7.803255320E-1,-3.318967223E-1,8.547686070E-1
3.106653699E0,1.234278306E-1,-7.717733979E-1,-3.251771927E-1,8.465275033E-1
3.109098647E0,1.417537779E-1,-7.650539279E-1,-3.221228719E-1,8.421192260E-1
3.111544428E0,1.588579863E-1,-7.583343983E-1,-3.196794093E-1,8.381538308E-1
3.113989376E0,1.771839410E-1,-7.503931522E-1,-3.154033720E-1,8.330446080E-1
3.116433542E0,1.948990077E-1,-7.412301898E-1,-3.099055886E-1,8.267099197E-1
3.118878490E0,2.107814997E-1,-7.259585857E-1,-3.013534844E-1,8.137927447E-1
3.121324272E0,2.278857082E-1,-7.058000565E-1,-2.952448130E-1,7.982826036E-1
3.123769220E0,2.474333644E-1,-6.813654304E-1,-2.842492759E-1,7.786396923E-1
3.126213386E0,2.675918937E-1,-6.544873714E-1,-2.750862837E-1,7.587038977E-1
3.128658386E0,2.895830274E-1,-6.257767677E-1,-2.671450377E-1,7.394737074E-1
3.131104115E0,3.140176237E-1,-5.976769924E-1,-2.628690004E-1,7.245170575E-1
3.133549115E0,3.372304738E-1,-5.683554411E-1,-2.604255378E-1,7.103335559E-1
3.135993282E0,3.598324656E-1,-5.390339494E-1,-2.622581422E-1,6.991540138E-1
3.138438230E0,3.812127411E-1,-5.127667785E-1,-2.689776421E-1,6.932545673E-1
3.140884011E0,4.007604122E-1,-4.871104956E-1,-2.811949253E-1,6.906201046E-1
3.143328959E0,4.135885537E-1,-4.620650411E-1,-2.964665592E-1,6.873514491E-1
3.145773126E0,4.215297997E-1,-4.382413030E-1,-3.123490512E-1,6.835969145E-1
3.148218074E0,4.270275831E-1,-4.193044901E-1,-3.306749761E-1,6.837505042E-1
3.150663855E0,4.355796874E-1,-4.076980650E-1,-3.453357220E-1,6.893505183E-1
3.153108803E0,4.484078586E-1,-3.997568190E-1,-3.587747514E-1,6.997102574E-1
3.155552970E0,4.655120671E-1,-3.887612820E-1,-3.612182140E-1,7.059145962E-1
3.157997917E0,4.862814546E-1,-3.679918647E-1,-3.557204306E-1,7.059919902E-1
3.160443699E0,5.113269091E-1,-3.282856643E-1,-3.441140056E-1,6.983130631E-1
3.162888647E0,5.339289308E-1,-2.653665841E-1,-3.257880509E-1,6.794390194E-1
3.165332813E0,5.565308928E-1,-1.786237955E-1,-2.995208800E-1,6.567692537E-1
3.167777813E0,5.779111981E-1,-7.599851489E-2,-2.720319629E-1,6.432406362E-1
3.170223542E0,5.986805558E-1,3.517886251E-2,-2.402669936E-1,6.460527753E-1
3.172668542E0,6.212825775E-1,1.402475983E-1,-2.078911513E-1,6.699851944E-1
3.175112709E0,6.457171440E-1,2.349316329E-1,-1.755153239E-1,7.091890658E-1
3.177557657E0,6.683191657E-1,3.100679815E-1,-1.431394964E-1,7.505208697E-1
3.180003438E0,6.878668070E-1,3.626023531E-1,-1.119854003E-1,7.856092798E-1
3.182448386E0,7.000841498E-1,3.894803822E-1,-8.083130419E-2,8.051996552E-1
3.184892553E0,7.068036199E-1,3.913129866E-1,-5.089893192E-2,8.094985558E-1
3.187337501E0,7.049710155E-1,3.674892485E-1,-2.157742530E-2,7.952974699E-1
3.189783282E0,6.933646202E-1,3.235070109E-1,7.133217063E-3,7.651549944E-1
3.192228230E0,6.707625985E-1,2.618096471E-1,3.340040147E-2,7.208206030E-1
3.194672397E0,6.383867860E-1,1.866733134E-1,5.844585598E-2,6.676829581E-1
3.197117397E0,5.986805558E-1,1.017631143E-1,8.104784787E-2,6.126523427E-1
3.199563126E0,5.540874600E-1,1.013340987E-2,9.998464584E-2,5.631274534E-1
3.202008074E0,5.076617599E-1,-9.004840255E-2,1.164779961E-1,5.285795123E-1
3.204452240E0,4.587925673E-1,-1.938954145E-1,1.286952943E-1,5.144400162E-1
3.206897240E0,4.117559791E-1,-3.056836724E-1,1.360256821E-1,5.305548794E-1
3.209342970E0,3.647193909E-1,-4.205262363E-1,1.409126073E-1,5.742115572E-1
3.211787970E0,3.164610863E-1,-5.310927033E-1,1.427451968E-1,6.344944995E-1
3.214232136E0,2.663701773E-1,-6.373831630E-1,1.427451968E-1,7.053981564E-1
3.216677084E0,2.162792832E-1,-7.406193018E-1,1.396908760E-1,7.840964350E-1
3.219122865E0,1.643557698E-1,-8.359141946E-1,1.354148239E-1,8.626137805E-1
3.221567813E0,1.142648607E-1,-9.281547666E-1,1.299170256E-1,9.441430838E-1
3.224011980E0,6.234135479E-2,-1.015508413E0,1.231975108E-1,1.024851896E0
3.226456928E0,3.729590774E-2,-1.078427553E0,1.176997274E-1,1.085472339E0
3.228902709E0,-6.686354056E-3,-1.145622611E0,1.109802127E-1,1.151004988E0
3.231347657E0,-3.051007912E-2,-1.182274461E0,1.079258919E-1,1.187582319E0
3.233791824E0,-5.555552989E-2,-1.207930803E0,1.060933024E-1,1.213852969E0
3.236236824E0,-7.510320097E-2,-1.206098199E0,1.036498398E-1,1.212871240E0
3.238682553E0,-7.999011874E-2,-1.183496237E0,1.073150337E-1,1.191040838E0
3.241127501E0,-9.465087205E-2,-1.146233439E0,1.128128171E-1,1.155654194E0
3.243571720E0,-8.121185005E-2,-1.086979628E0,1.219757795E-1,1.096812731E0
3.246016667E0,-8.121185005E-2,-1.020395398E0,1.329713613E-1,1.032222610E0
3.248462397E0,-5.616639555E-2,-9.324308634E-1,1.476321071E-1,9.457151886E-1
3.250907397E0,-4.272737354E-2,-8.432446122E-1,1.641254574E-1,8.601303798E-1
3.253351563E0,-1.523846015E-2,-7.308455110E-1,1.818405390E-1,7.532817223E-1
3.255796511E0,2.476616763E-3,-6.129485965E-1,2.056642622E-1,6.465368545E-1
3.258242292E0,1.530477498E-2,-4.810018539E-1,2.258227915E-1,5.315947261E-1
3.260687240E0,3.485244513E-2,-3.435572684E-1,2.484247833E-1,4.253953015E-1
3.263131407E0,4.035022855E-2,-2.195517272E-1,2.673615813E-1,3.483006130E-1
3.265576355E0,6.906086951E-2,-1.034874320E-1,2.875201106E-1,3.132840026E-1
3.268022136E0,7.944557071E-2,-1.430117711E-2,3.082895279E-1,3.186825307E-1
3.270467084E0,1.087670773E-1,7.977199554E-2,3.302806616E-1,3.567620549E-1
3.272911251E0,1.112105399E-1,1.634604484E-1,3.547152281E-1,4.060911171E-1
3.275356251E0,1.191517785E-1,2.660857141E-1,3.840367496E-1,4.821648874E-1
3.277801980E0,1.148757264E-1,3.674892485E-1,4.170234501E-1,5.675855339E-1
3.280246980E0,1.032692939E-1,4.786666334E-1,4.512318671E-1,6.658802376E-1
3.282691147E0,9.593892097E-2,5.965635777E-1,4.897163510E-1,7.777624851E-1
3.285136095E0,7.089346647E-2,7.101843953E-1,5.257573724E-1,8.864584443E-1
3.287581876E0,7.028260082E-2,8.195291758E-1,5.679070354E-1,9.995429529E-1
3.290026824E0,5.073492974E-2,9.019958973E-1,6.051697731E-1,1.087382677E0
3.292470990E0,5.806530640E-2,9.716345072E-1,6.424325705E-1,1.166261036E0
3.294915938E0,5.317838863E-2,1.001566887E0,6.754192710E-1,1.209196163E0
3.297361720E0,5.928703398E-2,1.021114588E0,7.053515911E-1,1.242461597E0
3.299806667E0,5.134579539E-2,1.020503640E0,7.303970456E-1,1.256003151E0
3.302250834E0,2.996552736E-2,1.020503640E0,7.523881793E-1,1.268232465E0
3.304695782E0,4.309210926E-3,1.010729790E0,7.688815594E-1,1.269949656E0
3.307141563E0,-4.944688454E-2,9.820191860E-1,7.756010890E-1,1.252343294E0
3.309586511E0,-9.404000640E-2,9.539194107E-1,7.798771262E-1,1.235724118E0
3.312030678E0,-1.752850115E-1,9.117697477E-1,7.743793130E-1,1.209012915E0
3.314475678E0,-2.375932187E-1,8.751178980E-1,7.639946342E-1,1.185735921E0
3.316921407E0,-3.163947761E-1,8.067010045E-1,7.487230301E-1,1.145189216E0
3.319366407E0,-3.695400059E-1,7.443928123E-1,7.322296500E-1,1.107628428E0
3.321810574E0,-4.251286983E-1,6.765868068E-1,7.169580460E-1,1.073560877E0
3.324255522E0,-4.672783613E-1,6.332154274E-1,7.041298747E-1,1.055987559E0
3.326701303E0,-5.033193827E-1,6.081699729E-1,6.998538375E-1,1.054986498E0
3.329146251E0,-5.314191580E-1,6.026722193E-1,7.022972703E-1,1.067165208E0
3.331590417E0,-5.479124784E-1,6.130568981E-1,7.126820087E-1,1.088100404E0
3.334035365E0,-5.570755005E-1,6.423783898E-1,7.285645008E-1,1.119727351E0
3.336481147E0,-5.589080453E-1,6.814737320E-1,7.511664629E-1,1.158030960E0
3.338926095E0,-5.540211797E-1,7.278994918E-1,7.804879546E-1,1.202471865E0
3.341370261E0,-5.473016500E-1,7.779904008E-1,8.110312223E-1,1.250031921E0
3.343815261E0,-5.387495160E-1,8.256378174E-1,8.464613557E-1,1.299394349E0
3.346260990E0,-5.332517624E-1,8.775613308E-1,8.800589442E-1,1.352396050E0
3.348705938E0,-5.326408744E-1,9.276522398E-1,9.130456448E-1,1.406377378E0
3.351150105E0,-5.369169116E-1,9.765213728E-1,9.423671365E-1,1.459427827E0
3.353595105E0,-5.479124784E-1,1.018060207E0,9.674125910E-1,1.507495204E0
3.356040834E0,-5.570755005E-1,1.041883945E0,9.851276875E-1,1.538288604E0
3.358485834E0,-5.656275749E-1,1.048603415E0,9.991775751E-1,1.554946785E0
3.360930001E0,-5.790666342E-1,1.045549154E0,1.004675388E0,1.561366016E0
3.363374949E0,-5.937273502E-1,1.033331871E0,1.008951306E0,1.561495969E0
3.365820730E0,-6.114424467E-1,1.016838431E0,1.008951306E0,1.557499599E0
3.368265678E0,-6.340444088E-1,9.991235137E-1,1.005286217E0,1.552694589E0
3.370709845E0,-6.548138261E-1,9.752997160E-1,9.991775751E-1,1.542188870E0
3.373154792E0,-6.755832434E-1,9.484216571E-1,9.894037247E-1,1.528017045E0
3.375600574E0,-6.951308846E-1,9.178783894E-1,9.765755534E-1,1.509770677E0
3.378045522E0,-7.140676975E-1,8.867242932E-1,9.625256658E-1,1.490848183E0
3.380489688E0,-7.281175852E-1,8.586245179E-1,9.478648901E-1,1.471679017E0
3.382934636E0,-7.458326817E-1,8.366333842E-1,9.319824576E-1,1.457673870E0
3.385380417E0,-7.617151737E-1,8.213617802E-1,9.154890776E-1,1.446708482E0
3.387825365E0,-7.745433450E-1,8.140314221E-1,8.996065855E-1,1.439394511E0
3.390269584E0,-7.812628150E-1,8.042575717E-1,8.880001903E-1,1.430295832E0
3.392714532E0,-7.751541734E-1,7.828773260E-1,8.782263398E-1,1.408915329E0
3.395160261E0,-7.580499649E-1,7.523340583E-1,8.702850938E-1,1.377694607E0
3.397605261E0,-7.330045104E-1,7.120169997E-1,8.672307730E-1,1.340280953E0
3.400049428E0,-6.987960935E-1,6.570391655E-1,8.684524894E-1,1.293918920E0
3.402494376E0,-6.584790349E-1,5.874006152E-1,8.708959818E-1,1.239795924E0
3.404940157E0,-6.157184839E-1,5.055447221E-1,8.751720190E-1,1.183474030E0
3.407385105E0,-5.827317834E-1,4.200236201E-1,8.806697726E-1,1.136474998E0
3.409829272E0,-5.668492913E-1,3.351134360E-1,8.837240934E-1,1.102083213E0
3.412274220E0,-5.668492913E-1,2.526466846E-1,8.837240934E-1,1.079868853E0
3.414720001E0,-5.778448582E-1,1.622387320E-1,8.776154518E-1,1.063219153E0
3.417164949E0,-5.906730294E-1,5.472653359E-2,8.592895269E-1,1.044159045E0
3.419609115E0,-5.998359919E-1,-8.027456701E-2,8.318006396E-1,1.028659092E0
3.422054115E0,-6.041120291E-1,-2.311581522E-1,7.933161259E-1,1.023589718E0
3.424499845E0,-6.016685963E-1,-3.893721402E-1,7.444469333E-1,1.033352312E0
3.426944845E0,-5.931165218E-1,-5.408665538E-1,6.845822334E-1,1.054977095E0
3.429389011E0,-5.784557462E-1,-6.770893931E-1,6.204414368E-1,1.085361080E0
3.431833959E0,-5.631841421E-1,-7.827689648E-1,5.508028269E-1,1.110534729E0
3.434279688E0,-5.430256128E-1,-8.548510075E-1,4.787207842E-1,1.120187775E0
3.436724688E0,-5.222561955E-1,-8.933355212E-1,4.078604579E-1,1.112272467E0
3.439168855E0,-4.972107410E-1,-9.018875957E-1,3.363893032E-1,1.083410134E0
3.441613803E0,-4.678892195E-1,-8.805073500E-1,2.636964023E-1,1.031382232E0
3.444059584E0,-4.294047356E-1,-8.377467990E-1,1.916143745E-1,9.606894372E-1
3.446504532E0,-3.854224980E-1,-7.760494947E-1,1.158671379E-1,8.742016437E-1
3.448948699E0,-3.341098428E-1,-7.027456760E-1,3.889818490E-2,7.790981588E-1
3.451393647E0,-2.742451131E-1,-6.190572381E-1,-3.929249942E-2,6.782227854E-1
3.453839428E0,-2.131586224E-1,-5.292600989E-1,-1.199266464E-1,5.830396651E-1
3.456284376E0,-1.484069675E-1,-4.351869822E-1,-2.036150992E-1,5.028632479E-1
3.458728542E0,-8.365530521E-2,-3.350051641E-1,-2.848601341E-1,4.476292731E-1
3.461173542E0,-2.195797116E-2,-2.348233461E-1,-3.673268557E-1,4.365239687E-1
3.463619272E0,4.035022855E-2,-1.370849907E-1,-4.449066818E-1,4.672926183E-1
3.466064220E0,1.002149731E-1,-4.179009050E-2,-5.194321275E-1,5.306592009E-1
3.468508438E0,1.588579863E-1,4.800702631E-2,-5.878490210E-1,6.108248569E-1
3.470953386E0,2.162792832E-1,1.323063523E-1,-6.501572132E-1,6.978438945E-1
3.473399167E0,2.718679607E-1,2.135513574E-1,-7.063567638E-1,7.864198930E-1
3.475844115E0,3.237914443E-1,2.886877060E-1,-7.540041804E-1,8.698872313E-1
3.478288282E0,3.738823533E-1,3.601588905E-1,-7.943212986E-1,9.489197890E-1
3.480733230E0,4.190863371E-1,4.310191870E-1,-8.273079395E-1,1.022667749E0
3.483179011E0,4.612360001E-1,4.994360507E-1,-8.572403193E-1,1.094091395E0
3.485623959E0,5.039965510E-1,5.660203099E-1,-8.810640574E-1,1.162181306E0
3.488068126E0,5.400375724E-1,6.301611066E-1,-9.024443030E-1,1.226029902E0
3.490513126E0,5.766894221E-1,6.857498288E-1,-9.213811159E-1,1.285210752E0
3.492958855E0,6.108978987E-1,7.364515662E-1,-9.378744960E-1,1.339837946E0
3.495403803E0,6.444954276E-1,7.779904008E-1,-9.549787045E-1,1.390189824E0
3.497847970E0,6.719843149E-1,8.121988177E-1,-9.714720249E-1,1.433522840E0
3.500292970E0,6.976406574E-1,8.335790634E-1,-9.904088378E-1,1.470532627E0
3.502738699E0,7.165774703E-1,8.464072347E-1,-1.008123994E0,1.498733620E0
3.505183699E0,7.269621491E-1,8.506832719E-1,-1.028282523E0,1.519704229E0
3.507627865E0,7.336816788E-1,8.415203094E-1,-1.050273657E0,1.532814402E0
3.510072813E0,7.306273580E-1,8.152531385E-1,-1.078373432E0,1.536666286E0
3.512518595E0,7.226861119E-1,7.706599832E-1,-1.108305812E0,1.531187055E0
3.514963542E0,7.074145079E-1,7.077409625E-1,-1.141903400E0,1.518313516E0
3.517407709E0,6.854233742E-1,6.252741814E-1,-1.177944422E0,1.499441918E0
3.519852657E0,6.561018825E-1,5.250923634E-1,-1.217039824E0,1.478978567E0
3.522298438E0,6.206716895E-1,4.096389115E-1,-1.258578539E0,1.461867751E0
3.524743386E0,5.797437429E-1,2.825790644E-1,-1.297673941E0,1.449107101E0
3.527187553E0,5.351506472E-1,1.463562399E-1,-1.332493186E0,1.443379526E0
3.529632501E0,4.862814546E-1,1.257687248E-2,-1.362425566E0,1.446662107E0
3.532078282E0,4.355796874E-1,-1.157047153E-1,-1.383195043E0,1.454766569E0
3.534523230E0,3.860996664E-1,-2.372668087E-1,-1.394190550E0,1.465993104E0
3.536967397E0,3.445608616E-1,-3.527202606E-1,-1.393579721E0,1.478241594E0
3.539412397E0,3.140176237E-1,-4.590107203E-1,-1.379529834E0,1.487414022E0
3.541858126E0,2.944699526E-1,-5.524730086E-1,-1.352040887E0,1.489950851E0
3.544303126E0,2.840852439E-1,-6.276093721E-1,-1.315389037E0,1.484872476E0
3.546747292E0,2.785874605E-1,-6.758676767E-1,-1.265908957E0,1.461825426E0
3.549192240E0,2.730896771E-1,-6.954153180E-1,-1.209709406E0,1.421821818E0
3.551638022E0,2.669810355E-1,-6.868632436E-1,-1.146790385E0,1.363153761E0
3.554082970E0,2.608723938E-1,-6.575416923E-1,-1.082649589E0,1.293269351E0
3.556527136E0,2.572071850E-1,-6.172246337E-1,-1.019119620E0,1.218903846E0
3.558972084E0,2.578180730E-1,-5.781292915E-1,-9.586439133E-1,1.148782742E0
3.561417865E0,2.614832520E-1,-5.463643074E-1,-9.030551910E-1,1.087380396E0
3.563862813E0,2.633158565E-1,-5.280383825E-1,-8.566294909E-1,1.040179724E0
3.566306980E0,2.688136399E-1,-5.255949497E-1,-8.187558651E-1,1.009391892E0
3.568751928E0,2.706462145E-1,-5.347579122E-1,-7.888234854E-1,9.906855652E-1
3.571197709E0,2.669810355E-1,-5.543055534E-1,-7.680540681E-1,9.840937818E-1
3.573642657E0,2.614832520E-1,-5.830162168E-1,-7.540041804E-1,9.883338020E-1
3.576086824E0,2.510985434E-1,-6.172246337E-1,-7.472847104E-1,1.001224833E0
3.578531824E0,2.358269542E-1,-6.544873714E-1,-7.448412180E-1,1.019194050E0
3.580977553E0,2.211661935E-1,-6.972479224E-1,-7.485064268E-1,1.046580633E0
3.583422553E0,2.022293955E-1,-7.332889438E-1,-7.546150684E-1,1.071472494E0
3.585866720E0,1.839034408E-1,-7.656647563E-1,-7.631671429E-1,1.096579720E0
3.588311667E0,1.667992324E-1,-7.931537032E-1,-7.692758441E-1,1.117452507E0
3.590757449E0,1.521384865E-1,-8.145339489E-1,-7.729409933E-1,1.133159059E0
3.593202397E0,1.417537779E-1,-8.316381574E-1,-7.741627097E-1,1.145008323E0
3.595646563E0,1.374777257E-1,-8.432446122E-1,-7.692758441E-1,1.149672530E0
3.598091511E0,1.393103153E-1,-8.438554406E-1,-7.595019937E-1,1.143828067E0
3.600537292E0,1.460298300E-1,-8.389685154E-1,-7.436195016E-1,1.130558643E0
3.602982240E0,1.637449116E-1,-8.291947246E-1,-7.234609723E-1,1.112552051E0
3.605426407E0,1.869577765E-1,-8.120905161E-1,-6.984155178E-1,1.087303293E0
3.607871407E0,2.113923579E-1,-7.919319272E-1,-6.715374589E-1,1.059625153E0
3.610317136E0,2.382704020E-1,-7.656647563E-1,-6.416050792E-1,1.026972434E0
3.612762136E0,2.602615356E-1,-7.296237350E-1,-6.141161919E-1,9.885471960E-1
3.615206251E0,2.737005353E-1,-6.911392808E-1,-5.890707374E-1,9.484670907E-1
3.617651251E0,2.828635275E-1,-6.514330506E-1,-5.701339245E-1,9.107301941E-1
3.620096980E0,2.853069901E-1,-6.215006709E-1,-5.579166412E-1,8.825724566E-1
3.622541980E0,2.901938856E-1,-6.129485965E-1,-5.524188280E-1,8.746913940E-1
3.624986147E0,2.926373482E-1,-6.215006709E-1,-5.511971116E-1,8.807485211E-1
3.627431095E0,2.926373482E-1,-6.410483718E-1,-5.548623204E-1,8.969123854E-1
3.629876876E0,2.889721692E-1,-6.703698635E-1,-5.591383576E-1,9.195305169E-1
3.632321824E0,2.810309231E-1,-6.966370344E-1,-5.634143949E-1,9.389980393E-1
3.634765990E0,2.712570727E-1,-7.210716605E-1,-5.683013201E-1,9.573354321E-1
3.637210938E0,2.620941103E-1,-7.381758690E-1,-5.683013201E-1,9.677620196E-1
3.639656720E0,2.492659688E-1,-7.400084734E-1,-5.670796037E-1,9.650519887E-1
3.642101667E0,2.364378124E-1,-7.235150933E-1,-5.621926785E-1,9.462756137E-1
3.644545834E0,2.272748351E-1,-6.911392808E-1,-5.548623204E-1,9.149860932E-1
3.646990834E0,2.248313874E-1,-6.489896178E-1,-5.426450372E-1,8.753286887E-1
3.649436563E0,2.327726185E-1,-6.037856340E-1,-5.255407691E-1,8.336265853E-1
3.651881511E0,2.504876852E-1,-5.579707623E-1,-5.023279190E-1,7.914599107E-1
3.654325730E0,2.730896771E-1,-5.097124577E-1,-4.742282033E-1,7.478483469E-1
3.656770678E0,2.999677360E-1,-4.571781158E-1,-4.406306446E-1,7.022448556E-1
3.659216407E0,3.250131905E-1,-3.973133862E-1,-4.015353024E-1,6.517070660E-1
3.661661407E0,3.457825780E-1,-3.313399851E-1,-3.581638932E-1,5.980243736E-1
3.664105574E0,3.604433239E-1,-2.641448677E-1,-3.123490512E-1,5.452098959E-1
3.666550522E0,3.702171743E-1,-2.018366456E-1,-2.665341794E-1,4.988379060E-1
3.668996303E0,3.744932115E-1,-1.480805427E-1,-2.219410390E-1,4.598160908E-1
3.671441251E0,3.702171743E-1,-1.053200215E-1,-1.822348386E-1,4.258668800E-1
3.673885417E0,3.592216074E-1,-7.111158967E-2,-1.437503546E-1,3.933969826E-1
3.676330365E0,3.415065408E-1,-4.789873958E-2,-1.070984900E-1,3.610970690E-1
3.678776147E0,3.189045489E-1,-4.056836292E-2,-7.411178946E-2,3.299067455E-1
3.681221095E0,2.969134152E-1,-4.912046716E-2,-4.112509638E-2,3.037460616E-1
3.683665261E0,2.718679607E-1,-6.988986582E-2,-9.970994666E-3,2.808846776E-1
3.686110261E0,2.486551106E-1,-9.493531287E-2,2.240483463E-2,2.671030780E-1
3.688555990E0,2.254422456E-1,-1.187590361E-1,5.661325902E-2,2.610229412E-1
3.691000938E0,2.034511119E-1,-1.352523863E-1,8.898909390E-2,2.600088879E-1
3.693445157E0,1.808491200E-1,-1.346415281E-1,1.244192421E-1,2.575167822E-1
3.695890105E0,1.613014489E-1,-1.175373197E-1,1.592385471E-1,2.553235082E-1
3.698335834E0,1.441972405E-1,-8.210715652E-2,1.940578371E-1,2.553289515E-1
3.700780834E0,1.319799423E-1,-3.018365987E-2,2.294879854E-1,2.664479197E-1
3.703225001E0,1.209843755E-1,2.968108095E-2,2.630855143E-1,2.910879137E-1
3.705669949E0,1.136539951E-1,1.011522561E-1,2.942396402E-1,3.312491138E-1
3.708115730E0,1.136539951E-1,1.738451570E-1,3.247828782E-1,3.855169091E-1
3.710560678E0,1.105996743E-1,2.471489161E-1,3.504391909E-1,4.428572018E-1
3.713004845E0,1.130431294E-1,3.167874813E-1,3.724303246E-1,5.018340404E-1
3.715449792E0,1.118214056E-1,3.778739572E-1,3.919779956E-1,5.558232663E-1
3.717895574E0,1.093779430E-1,4.297974706E-1,4.078604579E-1,6.025276369E-1
3.720340522E0,1.044910252E-1,4.725579917E-1,4.212994874E-1,6.416562070E-1
3.722784688E0,9.593892097E-2,5.055447221E-1,4.322950542E-1,6.720556201E-1
3.725229688E0,8.249989897E-2,5.336444974E-1,4.408471584E-1,6.970860062E-1
3.727675417E0,6.600654870E-2,5.562464595E-1,4.506210089E-1,7.189063095E-1
3.730120365E0,4.462628067E-2,5.812919140E-1,4.616165757E-1,7.436273645E-1
3.732564584E0,2.141342312E-2,6.038939357E-1,4.756664634E-1,7.690286111E-1
3.735009532E0,-3.632030450E-3,6.307719946E-1,4.933815300E-1,8.008194772E-1
3.737455261E0,-2.928834781E-2,6.582608819E-1,5.147618055E-1,8.361488578E-1
3.739900261E0,-5.433380231E-2,6.875823736E-1,5.373638272E-1,8.743463647E-1
3.742344428E0,-7.876839489E-2,7.162930369E-1,5.642418861E-1,9.152317088E-1
3.744789376E0,-1.019812524E-1,7.413384914E-1,5.917307734E-1,9.540064166E-1
3.747235157E0,-1.251941025E-1,7.608861923E-1,6.216631532E-1,9.904980752E-1
3.749680105E0,-1.484069675E-1,7.761577964E-1,6.534281373E-1,1.025384749E0
3.752124272E0,-1.734524220E-1,7.792121172E-1,6.827496290E-1,1.050430541E0
3.754569220E0,-1.972761452E-1,7.724925876E-1,7.114602923E-1,1.068568399E0
3.757015001E0,-2.229324579E-1,7.535557747E-1,7.365057468E-1,1.077026416E0
3.759459949E0,-2.553083003E-1,7.291212082E-1,7.591077089E-1,1.083071825E0
3.761904115E0,-2.937927842E-1,7.016322613E-1,7.749902010E-1,1.085915209E0
3.764349115E0,-3.377750516E-1,6.692564487E-1,7.859857678E-1,1.086172089E0
3.766794845E0,-3.915311396E-1,6.356589198E-1,7.914835215E-1,1.088028060E0
3.769239845E0,-4.520067573E-1,6.008396149E-1,7.933161259E-1,1.093009070E0
3.771684011E0,-5.118714571E-1,5.611333847E-1,7.896509767E-1,1.095642154E0
3.774128959E0,-5.692927837E-1,5.208163261E-1,7.817097306E-1,1.098368801E0
3.776574688E0,-6.212162971E-1,4.847752750E-1,7.707141638E-1,1.102232769E0
3.779019688E0,-6.658093929E-1,4.560646415E-1,7.591077089E-1,1.107944772E0
3.781463855E0,-7.030721307E-1,4.383495748E-1,7.487230301E-1,1.116712562E0
3.783908803E0,-7.299501896E-1,4.316300452E-1,7.426143885E-1,1.127212449E0
3.786354584E0,-7.476652861E-1,4.383495748E-1,7.371165752E-1,1.137758575E0
3.788799532E0,-7.568282485E-1,4.554537833E-1,7.346731424E-1,1.148900245E0
3.791243699E0,-7.568282485E-1,4.859969914E-1,7.352839708E-1,1.161733442E0
3.793688647E0,-7.501087189E-1,5.208163261E-1,7.365057468E-1,1.173180911E0
3.796134428E0,-7.385023236E-1,5.623551607E-1,7.389491796E-1,1.186454761E0
3.798579376E0,-7.207872272E-1,6.087808609E-1,7.450578213E-1,1.202189469E0
3.801023542E0,-7.042938471E-1,6.558174491E-1,7.499447465E-1,1.220058799E0
3.803468542E0,-6.847462058E-1,7.004105449E-1,7.542207837E-1,1.236244833E0
3.805914272E0,-6.645876765E-1,7.382841706E-1,7.578859925E-1,1.249452470E0
3.808359272E0,-6.395422220E-1,7.584426999E-1,7.560533881E-1,1.247343701E0
3.810803438E0,-6.071664095E-1,7.541666627E-1,7.523881793E-1,1.226175508E0
3.813248386E0,-5.692927837E-1,7.242342830E-1,7.432252169E-1,1.183635625E0
3.815694115E0,-5.265322328E-1,6.710890532E-1,7.291753292E-1,1.122182414E0
3.818139115E0,-4.831608534E-1,5.904549360E-1,7.090167999E-1,1.041530731E0
3.820583282E0,-4.355134070E-1,4.847752750E-1,6.821387410E-1,9.433940094E-1
3.823028230E0,-3.921419978E-1,3.571045697E-1,6.515955329E-1,8.401641260E-1
3.825474011E0,-3.579335809E-1,2.184382826E-1,6.155545115E-1,7.448080882E-1
3.827918959E0,-3.420510888E-1,9.137842059E-2,5.734048486E-1,6.739006481E-1
3.830363126E0,-3.518249393E-1,-1.796636544E-2,5.263682604E-1,6.333775523E-1
3.832808074E0,-3.860333562E-1,-9.676791728E-2,4.768881798E-1,6.211345409E-1
3.835253855E0,-4.397894442E-1,-1.517457366E-1,4.212994874E-1,6.276422403E-1
3.837698803E0,-4.886586368E-1,-1.975605935E-1,3.596021533E-1,6.380683036E-1
3.840142970E0,-5.240888000E-1,-2.507058382E-1,2.930178940E-1,6.506780877E-1
3.842587970E0,-5.326408744E-1,-3.069053888E-1,2.233793437E-1,6.540608152E-1
3.845033699E0,-5.216453075E-1,-3.484441936E-1,1.531298906E-1,6.457367469E-1
3.847478699E0,-4.990433455E-1,-3.606614769E-1,8.837822080E-2,6.220383199E-1
3.849922865E0,-4.678892195E-1,-3.356160223E-1,3.156780452E-2,5.766757863E-1
3.852367813E0,-4.336808026E-1,-2.665883303E-1,-1.424704865E-2,5.092655052E-1
3.854813542E0,-4.000832438E-1,-1.548000574E-1,-4.906633496E-2,4.317837016E-1
3.857258542E0,-3.689291477E-1,-7.581664715E-3,-6.861400604E-2,3.753319591E-1
3.859702709E0,-3.371641636E-1,1.579626650E-1,-7.960957289E-2,3.807486846E-1
3.862147657E0,-3.017340302E-1,3.277830482E-1,-7.594439387E-2,4.519432516E-1
3.864593438E0,-2.595843673E-1,4.866078794E-1,-6.189449504E-2,5.549794596E-1
3.867038386E0,-2.119368911E-1,6.179438233E-1,-4.112509638E-2,6.545709191E-1
3.869482553E0,-1.612351239E-1,7.175147533E-1,-1.180358976E-2,7.355022170E-1
3.871927501E0,-1.111442223E-1,7.853207588E-1,1.996137574E-2,7.933978755E-1
3.874373282E0,-7.021628320E-2,8.219726682E-1,5.600239709E-2,8.268649600E-1
3.876818230E0,-4.578169435E-2,8.348007798E-1,9.143254161E-2,8.410399605E-1
3.879262397E0,-3.722959012E-2,8.213617802E-1,1.262518317E-1,8.318417766E-1
3.881707397E0,-4.211650789E-2,7.816555500E-1,1.549624950E-1,7.979803092E-1
3.884153126E0,-5.311207473E-2,7.095735073E-1,1.763427556E-1,7.330840485E-1
3.886598126E0,-6.838369370E-2,6.118351817E-1,1.885600537E-1,6.438738331E-1
3.889042292E0,-8.304444700E-2,4.957708418E-1,1.922252327E-1,5.381780819E-1
3.891487240E0,-9.770520031E-2,3.790956736E-1,1.861165911E-1,4.334734379E-1
3.893932970E0,-1.129768118E-1,2.709726393E-1,1.720667034E-1,3.402894087E-1
3.896377970E0,-1.264158338E-1,1.848407239E-1,1.525190324E-1,2.709411587E-1
3.898822136E0,-1.380222589E-1,1.182564646E-1,1.268626899E-1,2.216503495E-1
3.901267084E0,-1.453526318E-1,7.732853293E-2,9.815205634E-2,1.916792001E-1
3.903712865E0,-1.441309154E-1,5.167221278E-2,6.638709456E-2,1.668861428E-1
3.906157813E0,-1.319136173E-1,4.128751159E-2,3.095694073E-2,1.416481317E-1
3.908601980E0,-1.099224910E-1,4.128751159E-2,-6.916671991E-3,1.176242024E-1
3.911046928E0,-8.121185005E-2,5.533739924E-2,-4.784460738E-2,1.093009552E-1
3.913492709E0,-4.761429131E-2,8.038285375E-2,-9.365946054E-2,1.322899031E-1
3.915937657E0,-1.096240710E-2,1.127586812E-1,-1.425286382E-1,1.820689630E-1
3.918381824E0,2.385688201E-2,1.549083441E-1,-1.938412637E-1,2.492793241E-1
3.920826824E0,5.928703398E-2,2.037775218E-1,-2.482082397E-1,3.265693817E-1
3.923272553E0,9.288459271E-2,2.593662143E-1,-3.025752008E-1,4.092067116E-1
3.925717553E0,1.270930320E-1,3.143440187E-1,-3.581638932E-1,4.931999344E-1
3.928161720E0,1.613014489E-1,3.619914651E-1,-4.131417274E-1,5.724876114E-1
3.930606667E0,2.003967911E-1,3.900912404E-1,-4.650652111E-1,6.392305533E-1
3.933052397E0,2.462116480E-1,4.023085535E-1,-5.096583366E-1,6.944234788E-1
3.935497397E0,2.883613110E-1,4.010868073E-1,-5.505862236E-1,7.397080926E-1
3.937941563E0,3.207371235E-1,3.974216282E-1,-5.805186033E-1,7.731869772E-1
3.940386511E0,3.396739364E-1,3.937564492E-1,-6.006771326E-1,7.945033304E-1
3.942832292E0,3.482260406E-1,3.845934570E-1,-6.116726995E-1,8.020704419E-1
3.945277240E0,3.518912196E-1,3.607697487E-1,-6.141161919E-1,7.944312048E-1
3.947721407E0,3.506695032E-1,3.253395855E-1,-6.116726995E-1,7.765039843E-1
3.950166355E0,3.525021076E-1,2.673074305E-1,-6.049532294E-1,7.494527391E-1
3.952612136E0,3.543346822E-1,1.995014697E-1,-5.982336998E-1,7.233515487E-1
3.955057084E0,3.512803614E-1,1.206999272E-1,-5.915141702E-1,6.984664475E-1
3.957501251E0,3.451717198E-1,3.456799686E-2,-5.866272449E-1,6.815203497E-1
3.959946251E0,3.329544365E-1,-5.522911623E-2,-5.829620957E-1,6.736124384E-1
3.962391980E0,3.152393401E-1,-1.468588263E-1,-5.823512077E-1,6.782892344E-1
3.964836928E0,2.938590944E-1,-2.421537191E-1,-5.854055285E-1,6.983489270E-1
3.967281095E0,2.694244981E-1,-3.429464102E-1,-5.927358866E-1,7.358924049E-1
3.969726095E0,2.474333644E-1,-4.443499446E-1,-6.037314534E-1,7.894059861E-1
3.972171824E0,2.266639769E-1,-5.439208746E-1,-6.165596247E-1,8.528612121E-1
3.974616824E0,2.077271640E-1,-6.331071258E-1,-6.324421167E-1,9.186719972E-1
3.977060990E0,1.918446869E-1,-7.112978101E-1,-6.501572132E-1,9.825748625E-1
3.979505938E0,1.753513366E-1,-7.699408531E-1,-6.721483469E-1,1.036986214E0
3.981951720E0,1.625231802E-1,-8.108687401E-1,-6.929177046E-1,1.078914660E0
3.984396667E0,1.551928073E-1,-8.328598738E-1,-7.136871219E-1,1.107740802E0
3.986840834E0,1.558036655E-1,-8.365250826E-1,-7.362891436E-1,1.125242507E0
3.989285782E0,1.606905907E-1,-8.267512321E-1,-7.540041804E-1,1.130425305E0
3.991731563E0,1.710752845E-1,-8.010949492E-1,-7.753844857E-1,1.127936599E0
3.994176511E0,1.881794930E-1,-7.644430399E-1,-7.918778062E-1,1.116626680E0
3.996620678E0,2.083380371E-1,-7.204607725E-1,-8.034842610E-1,1.099115745E0
3.999065678E0,2.315508872E-1,-6.673155427E-1,-8.114255071E-1,1.075796078E0
4.001511407E0,2.572071850E-1,-6.111159921E-1,-8.138689399E-1,1.049762327E0
4.003956355E0,2.822526395E-1,-5.518621206E-1,-8.095929027E-1,1.019636710E0
4.006400574E0,3.066872358E-1,-4.944408536E-1,-8.004299402E-1,9.895538932E-1
4.008845522E0,3.353978693E-1,-4.455716908E-1,-7.882125974E-1,9.655594032E-1
4.011291251E0,3.622759283E-1,-4.022002816E-1,-7.723301649E-1,9.431345600E-1
4.013736251E0,3.903757036E-1,-3.704353273E-1,-7.564476728E-1,9.283472429E-1
4.016180417E0,4.148102999E-1,-3.490550518E-1,-7.399542928E-1,9.173000433E-1
4.018625365E0,4.337471128E-1,-3.301182687E-1,-7.228500843E-1,9.053324658E-1
4.021071147E0,4.441317916E-1,-3.130140305E-1,-7.069675922E-1,8.916467956E-1
4.023516095E0,4.447426796E-1,-2.934663594E-1,-6.941394806E-1,8.750703821E-1
4.025960261E0,4.374122918E-1,-2.769730091E-1,-6.800895929E-1,8.547311947E-1
4.028405209E0,4.227515459E-1,-2.629231215E-1,-6.678722501E-1,8.330070707E-1
4.030850990E0,4.056473374E-1,-2.543710172E-1,-6.526006460E-1,8.094084136E-1
4.033295938E0,3.897648454E-1,-2.543710172E-1,-6.312204003E-1,7.842578931E-1
