"Time (s)","Gyroscope x (rad/s)","Gyroscope y (rad/s)","Gyroscope z (rad/s)","Absolute (rad/s)"
1.365806990E-1,8.921940625E-2,-4.718388617E-1,-6.984155178E-1,8.475707931E-1
1.390248130E-1,1.057127565E-1,-4.406847656E-1,-7.014698386E-1,8.351276453E-1
1.414697610E-1,1.240386888E-1,-4.052546024E-1,-7.014698386E-1,8.195589202E-1
1.439155420E-1,1.460298300E-1,-3.612723649E-1,-6.996372342E-1,8.008337483E-1
1.463604380E-1,1.710752845E-1,-3.154574931E-1,-6.959720254E-1,7.830435767E-1
1.488046050E-1,1.985642016E-1,-2.629231215E-1,-6.910851598E-1,7.656076071E-1
1.512495530E-1,2.254422456E-1,-2.073344290E-1,-6.813113093E-1,7.469918820E-1
1.536952820E-1,2.559854686E-1,-1.474696845E-1,-6.715374589E-1,7.336473449E-1
1.561402300E-1,2.840852439E-1,-8.638320863E-2,-6.605418921E-1,7.242113474E-1
1.585843970E-1,3.134067655E-1,-2.468587644E-2,-6.471028924E-1,7.194270960E-1
1.610293440E-1,3.396739364E-1,3.945491463E-2,-6.348856091E-1,7.211205239E-1
1.634750740E-1,3.665519953E-1,9.687620401E-2,-6.208357215E-1,7.274492128E-1
1.659200220E-1,3.915974498E-1,1.524648964E-1,-6.049532294E-1,7.365884313E-1
1.683641880E-1,4.123668373E-1,2.025557905E-1,-5.902924538E-1,7.480109877E-1
1.708090840E-1,4.319145083E-1,2.477597743E-1,-5.750208497E-1,7.606471100E-1
1.732548650E-1,4.484078586E-1,2.850225270E-1,-5.585274696E-1,7.708828594E-1
1.756998130E-1,4.618468881E-1,3.247287273E-1,-5.420341492E-1,7.826572131E-1
1.781439280E-1,4.685663879E-1,3.503850400E-1,-5.255407691E-1,7.864586678E-1
1.805888760E-1,4.746750295E-1,3.742087781E-1,-5.078257322E-1,7.894527013E-1
1.830346050E-1,4.795619547E-1,3.986433446E-1,-4.894998074E-1,7.927838584E-1
1.854795530E-1,4.838380218E-1,4.188019037E-1,-4.681195319E-1,7.928620069E-1
1.879237190E-1,4.771184921E-1,4.377386868E-1,-4.479610026E-1,7.873539695E-1
1.903686670E-1,4.844488800E-1,4.566754997E-1,-4.253590107E-1,7.900465286E-1
1.928143970E-1,4.703989923E-1,4.676710665E-1,-4.033678770E-1,7.763356765E-1
1.952593440E-1,4.752859175E-1,4.878295958E-1,-3.777115643E-1,7.788070645E-1
1.977034590E-1,4.587925673E-1,4.957708418E-1,-3.538878262E-1,7.625719251E-1
2.001484590E-1,4.575708210E-1,5.147076845E-1,-3.288423717E-1,7.631725638E-1
2.025941880E-1,4.429100752E-1,5.202054381E-1,-3.050186634E-1,7.482108109E-1
2.050391360E-1,4.349688292E-1,5.324227810E-1,-2.818058133E-1,7.430251789E-1
2.074832510E-1,4.239732623E-1,5.409748554E-1,-2.573712170E-1,7.339257896E-1
2.099281990E-1,4.038147330E-1,5.434183478E-1,-2.353800684E-1,7.167800332E-1
2.123739280E-1,3.970952332E-1,5.483052731E-1,-2.146106660E-1,7.101978842E-1
2.148188760E-1,3.696063161E-1,5.440291762E-1,-1.938412637E-1,6.856755858E-1
2.172630420E-1,3.610542119E-1,5.464726686E-1,-1.742935926E-1,6.777689709E-1
2.197079900E-1,3.299000859E-1,5.348662138E-1,-1.578002423E-1,6.479327510E-1
2.221537190E-1,3.182936609E-1,5.348662138E-1,-1.382525712E-1,6.375786184E-1
2.245986670E-1,2.901938856E-1,5.232598186E-1,-1.205375046E-1,6.103626946E-1
2.270428340E-1,2.706462145E-1,5.208163261E-1,-1.040441692E-1,5.960907717E-1
2.294877300E-1,2.504876852E-1,5.128750801E-1,-8.693994582E-2,5.773590585E-1
2.319335110E-1,2.236096561E-1,5.067664385E-1,-7.044661045E-2,5.583692563E-1
2.343784590E-1,2.101706266E-1,5.061555505E-1,-5.273152515E-2,5.505867301E-1
2.368225740E-1,1.796273887E-1,4.994360507E-1,-3.562731296E-2,5.319508181E-1
2.392675220E-1,1.704644263E-1,5.031012297E-1,-1.730137132E-2,5.314774740E-1
2.417132510E-1,1.411429197E-1,4.951599538E-1,1.635434572E-3,5.148857915E-1
2.441581990E-1,1.307582110E-1,5.000469089E-1,1.996137574E-2,5.172456644E-1
2.466023650E-1,1.081562117E-1,4.933274090E-1,3.950905055E-2,5.065872716E-1
2.490473130E-1,9.471718967E-2,4.963817298E-1,5.905672163E-2,5.087768313E-1
2.514930420E-1,8.066730201E-2,4.969925582E-1,8.043697476E-2,5.098812837E-1
2.539379900E-1,5.745444074E-2,4.994360507E-1,1.005955189E-1,5.126956601E-1
2.563821570E-1,4.890233651E-2,5.067664385E-1,1.238083690E-1,5.239581796E-1
2.588271050E-1,2.141342312E-2,5.049338341E-1,1.439669281E-1,5.254932805E-1
2.612728340E-1,1.835909858E-2,5.159294009E-1,1.671797782E-1,5.426502386E-1
2.637177820E-1,-1.035154238E-2,5.116533637E-1,1.897817701E-1,5.458144733E-1
2.661618970E-1,-1.829278469E-2,5.171511173E-1,2.123837769E-1,5.593628275E-1
2.686068440E-1,-4.150564224E-2,5.140967965E-1,2.343748957E-1,5.665243386E-1
2.710525740E-1,-5.677726120E-2,5.171511173E-1,2.551442981E-1,5.794545266E-1
2.734975220E-1,-7.082714885E-2,5.147076845E-1,2.746919692E-1,5.877041462E-1
2.759416880E-1,-9.281828254E-2,5.110424757E-1,2.924070358E-1,5.960549640E-1
2.783866360E-1,-1.025921181E-1,5.140967965E-1,3.125655651E-1,6.103424378E-1
2.808323650E-1,-1.325244755E-1,5.073773265E-1,3.284480572E-1,6.187670113E-1
2.832773130E-1,-1.386331320E-1,5.110424757E-1,3.443305492E-1,6.316225807E-1
2.857214800E-1,-1.697872281E-1,5.012686849E-1,3.577695489E-1,6.388247392E-1
2.881664280E-1,-1.801719218E-1,5.037121177E-1,3.699868619E-1,6.504445379E-1
2.906121570E-1,-2.070499808E-1,4.921056330E-1,3.791498244E-1,6.548222949E-1
2.930571050E-1,-2.265976518E-1,4.872187674E-1,3.870910704E-1,6.622447583E-1
2.955012190E-1,-2.467561811E-1,4.780557454E-1,3.956431746E-1,6.678019394E-1
2.979461670E-1,-2.748559713E-1,4.707253873E-1,4.017518163E-1,6.771504391E-1
3.003919490E-1,-2.870732546E-1,4.627841413E-1,4.072495997E-1,6.800238609E-1
3.028368440E-1,-3.206708431E-1,4.517885745E-1,4.115256667E-1,6.901420723E-1
3.052810110E-1,-3.292229474E-1,4.530103207E-1,4.164125621E-1,6.978578090E-1
3.077259590E-1,-3.603770435E-1,4.426256120E-1,4.176343083E-1,7.072534633E-1
3.101716880E-1,-3.695400059E-1,4.456799328E-1,4.231320918E-1,7.170991463E-1
3.126166360E-1,-3.927528560E-1,4.420147538E-1,4.267972708E-1,7.292377931E-1
3.150608030E-1,-4.055810273E-1,4.505668581E-1,4.316841960E-1,7.442161704E-1
3.175057510E-1,-4.171874523E-1,4.585081041E-1,4.377928376E-1,7.589055413E-1
3.199514800E-1,-4.342916608E-1,4.682819545E-1,4.439014792E-1,7.777825910E-1
3.223964280E-1,-4.330699444E-1,4.829426706E-1,4.512318671E-1,7.901856729E-1
3.248405420E-1,-4.483415484E-1,4.933274090E-1,4.579513669E-1,8.087654363E-1
3.272854900E-1,-4.367351234E-1,5.116533637E-1,4.701686800E-1,8.207224380E-1
3.297312720E-1,-4.495632946E-1,5.238706470E-1,4.793316424E-1,8.404203913E-1
3.321761670E-1,-4.379568696E-1,5.507487059E-1,4.933815300E-1,8.593926290E-1
3.346203340E-1,-4.428437650E-1,5.696855187E-1,5.068205595E-1,8.817705314E-1
3.370652820E-1,-4.379568696E-1,5.990070105E-1,5.227030516E-1,9.076530716E-1
3.395110110E-1,-4.361242652E-1,6.240524650E-1,5.379746556E-1,9.322352621E-1
3.419559590E-1,-4.391785860E-1,6.478762031E-1,5.526354313E-1,9.581374248E-1
3.444001260E-1,-4.300156236E-1,6.723107696E-1,5.679070354E-1,9.795068189E-1
3.468450740E-1,-4.397894442E-1,6.851389408E-1,5.789026022E-1,9.989786516E-1
3.492908030E-1,-4.294047356E-1,7.004105449E-1,5.905090570E-1,1.011762969E0
3.517357510E-1,-4.404003024E-1,6.991888285E-1,5.990611315E-1,1.020632982E0
3.541799170E-1,-4.342916608E-1,7.059083581E-1,6.045589447E-1,1.025869082E0
3.566248650E-1,-4.471198320E-1,6.967453957E-1,6.094458699E-1,1.028005136E0
3.590705940E-1,-4.538393319E-1,6.961345077E-1,6.106675863E-1,1.031255687E0
3.615155420E-1,-4.636131823E-1,6.808629036E-1,6.094458699E-1,1.024663723E0
3.639596570E-1,-4.807173908E-1,6.662021279E-1,6.057806611E-1,1.020727532E0
3.664046050E-1,-4.856043160E-1,6.454327106E-1,6.039480567E-1,1.008537650E0
3.688503340E-1,-5.106497407E-1,6.161112189E-1,5.960068107E-1,9.977877079E-1
3.712952820E-1,-5.143149495E-1,5.928983688E-1,5.911198854E-1,9.825838702E-1
3.737394490E-1,-5.399712920E-1,5.550247431E-1,5.819569230E-1,9.686564519E-1
3.761843970E-1,-5.436364412E-1,5.275358558E-1,5.746265650E-1,9.508051054E-1
3.786301260E-1,-5.631841421E-1,4.841644466E-1,5.648527145E-1,9.330863724E-1
3.810750740E-1,-5.729579329E-1,4.481233954E-1,5.550789237E-1,9.149907005E-1
3.835192400E-1,-5.827317834E-1,4.023085535E-1,5.453050733E-1,8.937483575E-1
3.859641880E-1,-5.973925591E-1,3.558828235E-1,5.355312228E-1,8.776811176E-1
3.884099170E-1,-5.967816710E-1,3.100679815E-1,5.227030516E-1,8.517681587E-1
3.908548650E-1,-6.132750511E-1,2.563118637E-1,5.086531639E-1,8.369767625E-1
3.932989800E-1,-6.065555215E-1,2.080535740E-1,4.970467091E-1,8.113268893E-1
3.957439280E-1,-6.236597300E-1,1.487997025E-1,4.799425006E-1,8.008980048E-1
3.981896570E-1,-6.187728047E-1,1.035957187E-1,4.628382921E-1,7.796352618E-1
4.006346050E-1,-6.309900880E-1,4.739616066E-2,4.432906210E-1,7.725939826E-1
4.030787720E-1,-6.352661848E-1,3.413898405E-3,4.219103456E-1,7.626159715E-1
4.055237190E-1,-6.444291472E-1,-4.667700827E-2,3.993083537E-1,7.595490967E-1
4.079694490E-1,-6.535921097E-1,-9.615704417E-2,3.718194366E-1,7.580755347E-1
4.104143970E-1,-6.517595053E-1,-1.431936324E-1,3.431088030E-1,7.503456002E-1
4.128585630E-1,-6.633659601E-1,-1.969497353E-1,3.101221025E-1,7.583002794E-1
4.153035110E-1,-6.505377889E-1,-2.354342043E-1,2.746919692E-1,7.443684284E-1
4.177492400E-1,-6.609224677E-1,-2.824707925E-1,2.349857688E-1,7.561921505E-1
4.201941880E-1,-6.456508636E-1,-3.124031723E-1,1.952795535E-1,7.433672604E-1
4.226383030E-1,-6.413748264E-1,-3.502767980E-1,1.506864280E-1,7.461647960E-1
4.250832510E-1,-6.242706180E-1,-3.765439689E-1,1.048715711E-1,7.365441001E-1
4.275290320E-1,-6.077772379E-1,-4.040328860E-1,5.722412467E-2,7.320589760E-1
4.299739280E-1,-5.937273502E-1,-4.186936319E-1,8.354946971E-3,7.265578634E-1
4.324180940E-1,-5.680710673E-1,-4.254131615E-1,-3.684904054E-2,7.106609229E-1
4.348630420E-1,-5.576863289E-1,-4.321326613E-1,-8.449649811E-2,7.105577644E-1
4.373087720E-1,-5.253105164E-1,-4.260240197E-1,-1.278678775E-1,6.883297161E-1
4.397537190E-1,-5.143149495E-1,-4.315218031E-1,-1.724610031E-1,6.931621249E-1
4.421978860E-1,-4.776630700E-1,-4.278566241E-1,-2.176649868E-1,6.772011117E-1
4.446428340E-1,-4.556719363E-1,-4.406847656E-1,-2.585929334E-1,6.846241899E-1
4.470885630E-1,-4.171874523E-1,-4.492368698E-1,-2.970774174E-1,6.812592219E-1
4.495335110E-1,-3.805355728E-1,-4.638976157E-1,-3.349510431E-1,6.871684810E-1
4.519776780E-1,-3.475488722E-1,-4.761149287E-1,-3.709920645E-1,6.964989274E-1
4.544226260E-1,-3.047883511E-1,-4.883322120E-1,-4.045896232E-1,7.036029075E-1
4.568683550E-1,-2.797428966E-1,-5.023820400E-1,-4.381871819E-1,7.229466154E-1
4.593133030E-1,-2.345388830E-1,-5.017712116E-1,-4.699521363E-1,7.263868438E-1
4.617574170E-1,-2.137694806E-1,-5.091015697E-1,-5.053822398E-1,7.485272255E-1
4.642023650E-1,-1.722306907E-1,-5.017712116E-1,-5.395906568E-1,7.567006254E-1
4.666480940E-1,-1.514612883E-1,-5.054363608E-1,-5.750208497E-1,7.804200243E-1
4.690930420E-1,-1.178637370E-1,-5.017712116E-1,-6.122835875E-1,8.003482997E-1
4.715372090E-1,-8.243358135E-2,-5.170428157E-1,-6.501572132E-1,8.347652188E-1
4.739821570E-1,-4.455996677E-2,-5.426991582E-1,-6.855873466E-1,8.755215455E-1
4.764278860E-1,6.141805090E-3,-5.732423663E-1,-7.167414427E-1,9.178032621E-1
4.788728340E-1,3.912850097E-2,-6.068399549E-1,-7.442303896E-1,9.610747334E-1
4.813170010E-1,8.983027190E-2,-6.215006709E-1,-7.656106353E-1,9.901980643E-1
4.837619490E-1,1.099888086E-1,-6.337180138E-1,-7.821039557E-1,1.012611800E0
4.862076780E-1,1.503058821E-1,-6.215006709E-1,-7.900452018E-1,1.016379045E0
4.886526260E-1,1.667992324E-1,-6.153920293E-1,-7.979864478E-1,1.021426309E0
4.910967400E-1,1.961207390E-1,-5.982878208E-1,-8.028733730E-1,1.020302560E0
4.935416880E-1,2.168901414E-1,-5.940117836E-1,-8.132580519E-1,1.030184445E0
4.959874170E-1,2.352160811E-1,-5.897357464E-1,-8.260862231E-1,1.041889295E0
4.984323650E-1,2.608723938E-1,-5.982878208E-1,-8.401361108E-1,1.063875654E0
5.008765320E-1,2.669810355E-1,-6.269984841E-1,-8.584620953E-1,1.096067124E0
5.033214800E-1,2.932482064E-1,-6.612069011E-1,-8.755663037E-1,1.135696011E0
5.057672090E-1,2.914156318E-1,-7.192390561E-1,-8.932813406E-1,1.183291783E0
5.082121570E-1,3.054655194E-1,-7.717733979E-1,-9.061095119E-1,1.228811543E0
5.106563240E-1,2.932482064E-1,-8.389685154E-1,-9.158833623E-1,1.276207277E0
5.131012720E-1,2.846961021E-1,-8.927246332E-1,-9.226028919E-1,1.314992486E0
5.155470010E-1,2.633158565E-1,-9.525893927E-1,-9.281006455E-1,1.355777489E0
5.179919490E-1,2.394921333E-1,-1.005734682E0,-9.305440784E-1,1.390960465E0
5.204360630E-1,2.223879248E-1,-1.057047248E0,-9.299332500E-1,1.425335442E0
5.228810110E-1,1.912338287E-1,-1.104083776E0,-9.287115335E-1,1.455361287E0
5.253267920E-1,1.820708513E-1,-1.126685858E0,-9.232137203E-1,1.467955854E0
5.277716880E-1,1.527493447E-1,-1.149287820E0,-9.213811159E-1,1.480924717E0
5.302158550E-1,1.551928073E-1,-1.151731253E0,-9.140507579E-1,1.478532541E0
5.326608030E-1,1.454189718E-1,-1.159061670E0,-9.061095119E-1,1.478379207E0
5.351065320E-1,1.515276134E-1,-1.141346574E0,-8.957248330E-1,1.458751382E0
5.375514800E-1,1.527493447E-1,-1.119966269E0,-8.828966618E-1,1.434281465E0
5.399956470E-1,1.558036655E-1,-1.083925247E0,-8.700684905E-1,1.398637874E0
5.424405940E-1,1.655775011E-1,-1.039942980E0,-8.584620953E-1,1.358622272E0
5.448863240E-1,1.619123220E-1,-9.935173392E-1,-8.480773568E-1,1.316255107E0
5.473312720E-1,1.777947992E-1,-9.373177290E-1,-8.407469988E-1,1.271625350E0
5.497754380E-1,1.698535532E-1,-8.945572376E-1,-8.340274692E-1,1.234781236E0
5.522203860E-1,1.887903661E-1,-8.456880450E-1,-8.236427903E-1,1.195498857E0
5.546661150E-1,1.887903661E-1,-8.084253073E-1,-8.144798279E-1,1.163000718E0
5.571110630E-1,2.077271640E-1,-7.601670027E-1,-8.028733730E-1,1.124993378E0
5.595551780E-1,2.199444622E-1,-7.198499441E-1,-7.876017690E-1,1.089438413E0
5.620001260E-1,2.333834916E-1,-6.691481471E-1,-7.704975605E-1,1.046849362E0
5.644458550E-1,2.572071850E-1,-6.117268801E-1,-7.491172552E-1,1.000770690E0
5.668908030E-1,2.663701773E-1,-5.494186878E-1,-7.283478975E-1,9.504233929E-1
5.693349690E-1,2.987459898E-1,-4.755040705E-1,-7.026915550E-1,8.995158192E-1
5.717799170E-1,3.121850193E-1,-4.083089530E-1,-6.776461005E-1,8.505174454E-1
5.742256470E-1,3.488368988E-1,-3.240095973E-1,-6.513789296E-1,8.068233456E-1
5.766705940E-1,3.653302491E-1,-2.476515025E-1,-6.232791543E-1,7.637240089E-1
5.791147610E-1,3.977060914E-1,-1.560217887E-1,-5.933467746E-1,7.311452172E-1
5.815597090E-1,4.196972251E-1,-7.355505228E-2,-5.615817904E-1,7.049327726E-1
5.840054380E-1,4.410774708E-1,1.440946572E-2,-5.298168659E-1,6.895381638E-1
5.864503860E-1,4.691772461E-1,9.870879352E-2,-4.968301952E-1,6.904425805E-1
5.888945010E-1,4.795619547E-1,1.768994778E-1,-4.668978155E-1,6.922908809E-1
5.913394490E-1,5.088834763E-1,2.569227517E-1,-4.320785105E-1,7.153066000E-1
5.937852300E-1,5.094943047E-1,3.247287273E-1,-4.039787352E-1,7.267957150E-1
5.962301260E-1,5.327072144E-1,3.986433446E-1,-3.746572435E-1,7.635846663E-1
5.986742920E-1,5.339289308E-1,4.530103207E-1,-3.496117890E-1,7.826409501E-1
6.011192400E-1,5.485896468E-1,5.134859681E-1,-3.215120137E-1,8.173055824E-1
6.035649690E-1,5.528657436E-1,5.629659891E-1,-2.970774174E-1,8.431169713E-1
6.060099170E-1,5.553091764E-1,6.197764277E-1,-2.726428211E-1,8.756855656E-1
6.084540840E-1,5.608069897E-1,6.741433740E-1,-2.457647771E-1,9.106997826E-1
6.108990320E-1,5.498114228E-1,7.309538126E-1,-2.219410390E-1,9.411928079E-1
6.133447610E-1,5.571417809E-1,7.938728333E-1,-1.926195323E-1,9.888090430E-1
6.157897090E-1,5.406484008E-1,8.488506675E-1,-1.657414883E-1,1.019959994E0
6.182338760E-1,5.467571020E-1,9.154349566E-1,-1.364199817E-1,1.074976697E0
6.206787720E-1,5.320963264E-1,9.649149776E-1,-1.070984900E-1,1.107094170E0
6.231245530E-1,5.351506472E-1,1.023558021E0,-7.594439387E-2,1.157508008E0
6.255695010E-1,5.259876847E-1,1.070594549E0,-4.723374173E-2,1.193761601E0
6.280136150E-1,5.186573267E-1,1.117020249E0,-1.730137132E-2,1.231681370E0
6.304585630E-1,5.180464387E-1,1.156115651E0,1.202013530E-2,1.266933303E0
6.329042920E-1,5.021639466E-1,1.190324068E0,4.073077813E-2,1.292555226E0
6.353492400E-1,5.021639466E-1,1.226975918E0,7.066313922E-2,1.327641447E0
6.377934070E-1,4.783402383E-1,1.250799656E0,9.509773552E-2,1.342517315E0
6.402383550E-1,4.728424549E-1,1.286229849E0,1.231975108E-1,1.375916000E0
6.426840840E-1,4.422992170E-1,1.304555774E0,1.506864280E-1,1.385713089E0
6.451290320E-1,4.245841205E-1,1.334488153E0,1.781753451E-1,1.411692871E0
6.475731990E-1,3.909865618E-1,1.349148870E0,2.074968517E-1,1.419904260E0
6.500181470E-1,3.573890030E-1,1.368696570E0,2.343748957E-1,1.433871958E0
6.524638760E-1,3.262349069E-1,1.374805212E0,2.624746561E-1,1.437153969E0
6.549088240E-1,2.804200649E-1,1.374194384E0,2.881309688E-1,1.431804830E0
6.573529380E-1,2.504876852E-1,1.366253138E0,3.168416321E-1,1.424703596E0
6.597978860E-1,1.973424703E-1,1.343040228E0,3.412761986E-1,1.399703736E0
6.622436670E-1,1.643557698E-1,1.329601169E0,3.699868619E-1,1.389871348E0
6.646885630E-1,1.057127565E-1,1.301501393E0,3.938105702E-1,1.363879697E0
6.671327300E-1,6.356308609E-2,1.281953812E0,4.188560247E-1,1.350143033E0
6.695776780E-1,6.752669811E-3,1.248967052E0,4.420689046E-1,1.324911020E0
6.720234070E-1,-4.822515696E-2,1.219645619E0,4.640600085E-1,1.305837966E0
6.744683550E-1,-1.025921181E-1,1.184826255E0,4.848294258E-1,1.284288896E0
6.769125220E-1,-1.575699300E-1,1.144509196E0,5.037662387E-1,1.260361062E0
6.793574690E-1,-2.162129432E-1,1.105413914E0,5.220922232E-1,1.241478251E0
6.818031990E-1,-2.718016505E-1,1.062042475E0,5.410290360E-1,1.222506758E0
6.842481470E-1,-3.249468803E-1,1.012562394E0,5.575223565E-1,1.200709896E0
6.866923130E-1,-3.756486475E-1,9.612497687E-1,5.746265650E-1,1.181231863E0
6.891372090E-1,-4.239069521E-1,9.056611061E-1,5.898981690E-1,1.160990522E0
6.915829900E-1,-4.715544283E-1,8.555701971E-1,6.057806611E-1,1.149492997E0
6.940278860E-1,-5.253105164E-1,8.097553253E-1,6.210522652E-1,1.147763365E0
6.964720530E-1,-5.796774626E-1,7.651622295E-1,6.363239288E-1,1.151697591E0
6.989170010E-1,-6.358770132E-1,7.211799622E-1,6.528172493E-1,1.162157681E0
7.013627300E-1,-6.890222430E-1,6.716999412E-1,6.662562490E-1,1.170397305E0
7.038076780E-1,-7.409457564E-1,6.173329353E-1,6.784735918E-1,1.179163679E0
7.062518440E-1,-7.898149490E-1,5.568573475E-1,6.888582706E-1,1.186770187E0
7.086967920E-1,-8.386840820E-1,4.921056330E-1,6.967995167E-1,1.196281117E0
7.111425220E-1,-8.832772374E-1,4.230779409E-1,7.041298747E-1,1.206222410E0
7.135874690E-1,-9.235942960E-1,3.503850400E-1,7.090167999E-1,1.215936233E0
7.160316360E-1,-9.614679217E-1,2.813573182E-1,7.114602923E-1,1.228722203E0
7.184765840E-1,-9.956763387E-1,2.123296261E-1,7.132928371E-1,1.243077597E0
7.209223130E-1,-1.026219606E0,1.487997025E-1,7.120711207E-1,1.257900359E0
7.233672610E-1,-1.054319382E0,9.015668929E-2,7.084059119E-1,1.273403519E0
7.258113760E-1,-1.078143120E0,4.128751159E-2,7.077950835E-1,1.290376350E0
7.282563240E-1,-1.100134254E0,5.857357290E-3,7.047407627E-1,1.306517978E0
7.307020530E-1,-1.120292783E0,-1.491204090E-2,7.041298747E-1,1.323282724E0
7.331470010E-1,-1.138618708E0,-2.407501265E-2,7.029081583E-1,1.338324343E0
7.355911670E-1,-1.151446819E0,-2.712933533E-2,7.004647255E-1,1.348041769E0
7.380361150E-1,-1.157555461E0,-2.651847154E-2,6.992429495E-1,1.352619154E0
7.404818440E-1,-1.156333804E0,-2.285328321E-2,6.943560243E-1,1.348984962E0
7.429267920E-1,-1.149614215E0,-1.491204090E-2,6.894691586E-1,1.340597976E0
7.453709590E-1,-1.139840364E0,-2.083883155E-3,6.858039498E-1,1.330250900E0
7.478159070E-1,-1.128844857E0,1.807465218E-2,6.796953082E-1,1.317802382E0
7.502616360E-1,-1.111740589E0,4.006578028E-2,6.735866666E-1,1.300496598E0
7.527065840E-1,-1.089138627E0,6.266777217E-2,6.668671370E-1,1.278617213E0
7.551507510E-1,-1.062260628E0,7.793939114E-2,6.595367789E-1,1.252781287E0
7.575956470E-1,-1.028052211E0,8.954583108E-2,6.515955329E-1,1.220445223E0
7.600414280E-1,-9.932329059E-1,1.005413830E-1,6.412107944E-1,1.186495452E0
7.624863760E-1,-9.547483921E-1,1.090935022E-1,6.289935112E-1,1.148511524E0
7.649304900E-1,-9.162639380E-1,1.194781959E-1,6.149436235E-1,1.109941577E0
7.673754380E-1,-8.777794838E-1,1.310846210E-1,5.966176987E-1,1.069407630E0
7.698211670E-1,-8.447927833E-1,1.530757546E-1,5.782917738E-1,1.035146564E0
7.722661150E-1,-8.185255527E-1,1.897276342E-1,5.563006401E-1,1.007695915E0
7.747102820E-1,-7.965344191E-1,2.373750955E-1,5.318660140E-1,9.867600892E-1
7.771552300E-1,-7.745433450E-1,2.850225270E-1,5.049880147E-1,9.675578169E-1
7.796009590E-1,-7.458326817E-1,3.259504437E-1,4.750555754E-1,9.424372024E-1
7.820459070E-1,-7.091807723E-1,3.564936817E-1,4.451232255E-1,9.100328558E-1
7.844900740E-1,-6.639767885E-1,3.766522408E-1,4.139691293E-1,8.683907681E-1
7.869350220E-1,-6.096098423E-1,3.858152032E-1,3.870910704E-1,8.187289097E-1
7.893807510E-1,-5.515776873E-1,3.925347030E-1,3.608238995E-1,7.671475247E-1
7.918256990E-1,-4.917129576E-1,3.986433446E-1,3.363893032E-1,7.168374378E-1
7.942698130E-1,-4.349025190E-1,4.035302699E-1,3.131764233E-1,6.708623941E-1
7.967147610E-1,-3.823681772E-1,4.065845907E-1,2.911853194E-1,6.295278727E-1
7.991605420E-1,-3.389967680E-1,4.059737325E-1,2.685832977E-1,5.931867058E-1
8.016054380E-1,-3.035666049E-1,3.998650908E-1,2.410944104E-1,5.569302373E-1
8.040496050E-1,-2.730233669E-1,3.803174198E-1,2.099403143E-1,5.130867707E-1
8.064945530E-1,-2.449235916E-1,3.454981148E-1,1.720667034E-1,4.571252164E-1
8.089402820E-1,-2.198781371E-1,2.929637730E-1,1.280844212E-1,3.880461138E-1
8.113852300E-1,-1.978870034E-1,2.330990285E-1,7.738265395E-2,3.154084627E-1
8.138293970E-1,-1.801719218E-1,1.671256423E-1,2.240483463E-2,2.467688764E-1
8.162743440E-1,-1.612351239E-1,1.029848456E-1,-3.990336508E-2,1.954352121E-1
8.187200740E-1,-1.404657215E-1,3.945491463E-2,-1.077093482E-1,1.813521792E-1
8.211650220E-1,-1.172528714E-1,-1.307944767E-2,-1.785696447E-1,2.140243580E-1
8.236091880E-1,-8.915308863E-2,-5.767257512E-2,-2.506517172E-1,2.722144053E-1
8.260540840E-1,-5.922072008E-2,-8.577235043E-2,-3.215120137E-1,3.379851546E-1
8.284998650E-1,-2.562316135E-2,-9.921136498E-2,-3.880962729E-1,4.013952646E-1
8.309448130E-1,1.163958758E-2,-9.432445467E-2,-4.522370696E-1,4.621157321E-1
8.333889280E-1,4.890233651E-2,-7.599851489E-2,-5.127126575E-1,5.206164441E-1
8.358338760E-1,8.799767494E-2,-4.973133281E-2,-5.713556409E-1,5.802275973E-1
8.382796050E-1,1.289256215E-1,-1.857723109E-2,-6.275551915E-1,6.409309228E-1
8.407245530E-1,1.722970158E-1,1.379860006E-2,-6.800895929E-1,7.017111353E-1
8.431687190E-1,2.156684101E-1,4.556356370E-2,-7.332348228E-1,7.656514917E-1
8.456136670E-1,2.590397894E-1,7.366333902E-2,-7.784388065E-1,8.237080038E-1
8.480593970E-1,3.024111986E-1,9.626533091E-2,-8.248645067E-1,8.838105009E-1
8.505043440E-1,3.433391154E-1,1.133695543E-1,-8.645707369E-1,9.371323082E-1
8.529485110E-1,3.824344575E-1,1.213107854E-1,-9.006117582E-1,9.859381117E-1
8.553934590E-1,4.184754789E-1,1.213107854E-1,-9.323766828E-1,1.029157088E0
8.578391880E-1,4.514621794E-1,1.170347333E-1,-9.568113089E-1,1.064426188E0
8.602841360E-1,4.826162755E-1,1.035957187E-1,-9.806349874E-1,1.097859518E0
8.627282510E-1,5.131595135E-1,8.404804766E-2,-9.983500838E-1,1.125655209E0
8.651731990E-1,5.394266844E-1,5.900258571E-2,-1.013010979E0,1.149196979E0
8.676189280E-1,5.632504225E-1,3.090281226E-2,-1.025228262E0,1.170170505E0
8.700638760E-1,5.870741606E-1,-2.694746945E-3,-1.033169508E0,1.188319218E0
8.725080420E-1,6.090652943E-1,-3.873576596E-2,-1.038056374E0,1.204168604E0
8.749529900E-1,6.310564280E-1,-7.844197005E-2,-1.035612941E0,1.215269320E0
8.773987190E-1,6.536583900E-1,-1.224242300E-1,-1.030726075E0,1.226643072E0
8.798436670E-1,6.774821281E-1,-1.676282287E-1,-1.015454412E0,1.232164323E0
8.822878340E-1,7.006949782E-1,-2.152756751E-1,-9.977392554E-1,1.238063282E0
8.847327820E-1,7.226861119E-1,-2.629231215E-1,-9.726938009E-1,1.239974602E0
8.871785110E-1,7.397903204E-1,-3.093488514E-1,-9.476483464E-1,1.241379804E0
8.896234590E-1,7.507858872E-1,-3.484441936E-1,-9.201593995E-1,1.237653475E0
8.920676260E-1,7.568945289E-1,-3.838743567E-1,-8.975574374E-1,1.235256331E0
8.945125220E-1,7.599488497E-1,-4.174719155E-1,-8.773988485E-1,1.233545214E0
8.969583030E-1,7.581162453E-1,-4.474042952E-1,-8.657924533E-1,1.234709446E0
8.994032510E-1,7.489532828E-1,-4.761149287E-1,-8.602946401E-1,1.236011049E0
9.018473650E-1,7.379577160E-1,-5.072689652E-1,-8.651815653E-1,1.245167673E0
9.042923130E-1,7.239078283E-1,-5.408665538E-1,-8.773988485E-1,1.259526861E0
9.067380420E-1,7.086362243E-1,-5.817945004E-1,-8.963356614E-1,1.282212056E0
9.091829900E-1,6.884776950E-1,-6.282202005E-1,-9.213811159E-1,1.310574423E0
9.116271570E-1,6.719843149E-1,-6.831980348E-1,-9.488700628E-1,1.348583283E0
9.140721050E-1,6.542692780E-1,-7.491714358E-1,-9.745263457E-1,1.392489758E0
9.165178340E-1,6.414411068E-1,-8.200317025E-1,-9.946848750E-1,1.439894679E0
9.189627820E-1,6.298346519E-1,-8.915029168E-1,-1.009345770E0,1.486690291E0
9.214069490E-1,6.218934655E-1,-9.593088627E-1,-1.010567546E0,1.525867537E0
9.238518970E-1,6.115087271E-1,-1.016730189E0,-1.000182748E0,1.551788881E0
9.262976260E-1,6.011240482E-1,-1.057047248E0,-9.800241590E-1,1.561776667E0
9.287425740E-1,5.882958770E-1,-1.075373173E0,-9.500917792E-1,1.550868753E0
9.311866880E-1,5.766894221E-1,-1.083314419E0,-9.140507579E-1,1.530238415E0
9.336316360E-1,5.669156313E-1,-1.080870986E0,-8.731228113E-1,1.500672804E0
9.360774170E-1,5.632504225E-1,-1.075984001E0,-8.303623199E-1,1.471222006E0
9.385223130E-1,5.644721389E-1,-1.071707964E0,-7.839365602E-1,1.442824759E0
9.409664800E-1,5.705807805E-1,-1.068653703E0,-7.368999720E-1,1.417957944E0
9.434114280E-1,5.773003101E-1,-1.063766718E0,-6.929177046E-1,1.394636233E0
9.458571570E-1,5.791329145E-1,-1.055214643E0,-6.495463252E-1,1.367765808E0
9.483021050E-1,5.724133849E-1,-1.042997360E0,-6.080075502E-1,1.336103947E0
9.507462720E-1,5.583634973E-1,-1.027725816E0,-5.744099617E-1,1.303049098E0
9.531912190E-1,5.382049680E-1,-1.022838831E0,-5.450884700E-1,1.277883133E0
9.556369490E-1,5.143812299E-1,-1.031390905E0,-5.243190527E-1,1.266201295E0
9.580818970E-1,4.868923426E-1,-1.055214643E0,-5.078257322E-1,1.268238570E0
9.605260630E-1,4.563491046E-1,-1.092477441E0,-4.956084788E-1,1.283506614E0
9.629710110E-1,4.227515459E-1,-1.142568350E0,-4.894998074E-1,1.312932354E0
9.654167400E-1,3.842670619E-1,-1.192659259E0,-4.882780910E-1,1.344809569E0
9.678616880E-1,3.451717198E-1,-1.236641526E0,-4.876672029E-1,1.373406379E0
9.703058030E-1,3.066872358E-1,-1.269628167E0,-4.925541282E-1,1.395930626E0
9.727507510E-1,2.682027519E-1,-1.284288883E0,-4.956084788E-1,1.402482947E0
9.751964800E-1,2.358269542E-1,-1.277569413E0,-4.974410832E-1,1.391131047E0
9.776414280E-1,2.107814997E-1,-1.251913071E0,-4.980519116E-1,1.363734169E0
9.800855940E-1,1.955098808E-1,-1.204265594E0,-4.949975908E-1,1.316625364E0
9.825305420E-1,1.900120974E-1,-1.145011783E0,-4.870563447E-1,1.258721757E0
9.849762720E-1,1.924555451E-1,-1.069264531E0,-4.742282033E-1,1.185435854E0
9.874212190E-1,2.052837163E-1,-9.812999964E-1,-4.565131068E-1,1.101587629E0
9.898653860E-1,2.254422456E-1,-8.823399544E-1,-4.339111149E-1,1.008774929E0
9.923103340E-1,2.492659688E-1,-7.748277187E-1,-4.088656604E-1,9.108581916E-1
9.947560630E-1,2.779766023E-1,-6.575416923E-1,-3.795441687E-1,8.085084072E-1
9.972010110E-1,3.103524148E-1,-5.347579122E-1,-3.514443934E-1,7.111946342E-1
9.996451260E-1,3.433391154E-1,-4.028111696E-1,-3.190685511E-1,6.180156364E-1
1.002090074E0,3.726606369E-1,-2.641448677E-1,-2.860818505E-1,5.389724359E-1
1.004535855E0,4.032038748E-1,-1.224242300E-1,-2.537060380E-1,4.918615765E-1
1.006980751E0,4.313036501E-1,2.601589449E-2,-2.158323973E-1,4.829940881E-1
1.009424917E0,4.569599628E-1,1.750668883E-1,-1.767370552E-1,5.202853157E-1
1.011869865E0,4.807837009E-1,3.228961229E-1,-1.376417130E-1,5.952815422E-1
1.014315594E0,5.046074390E-1,4.652276039E-1,-9.488119185E-2,6.928692745E-1
1.016760542E0,5.272094011E-1,6.045048237E-1,-4.906633496E-2,8.036064582E-1
1.019204709E0,5.485896468E-1,7.382841706E-1,-1.418889035E-3,9.197913516E-1
1.021649657E0,5.675264597E-1,8.708418012E-1,4.806115478E-2,1.040558312E0
1.024095386E0,5.791329145E-1,1.002788544E0,1.012063771E-1,1.162420977E0
1.026540334E0,5.840198398E-1,1.134124517E0,1.574059427E-1,1.285338175E0
1.028984501E0,5.809655190E-1,1.264238715E0,2.166598290E-1,1.408105800E0
1.031429449E0,5.736351013E-1,1.387022495E0,2.795788646E-1,1.526778626E0
1.033875178E0,5.638613105E-1,1.494534731E0,3.431088030E-1,1.633798424E0
1.036320126E0,5.510331392E-1,1.584331870E0,4.090822041E-1,1.726584271E0
1.038764240E0,5.333180428E-1,1.658246398E0,4.762773216E-1,1.805837572E0
1.041209188E0,5.088834763E-1,1.714445949E0,5.434724689E-1,1.869130714E0
1.043654917E0,4.795619547E-1,1.758428216E0,6.112784743E-1,1.922423167E0
1.046099865E0,4.429100752E-1,1.787749767E0,6.778627038E-1,1.962579020E0
1.048544032E0,3.970952332E-1,1.803632259E0,7.426143885E-1,1.990540148E0
1.050988980E0,3.445608616E-1,1.804853916E0,8.079769015E-1,2.007248495E0
1.053434709E0,2.846961021E-1,1.790193200E0,8.715068102E-1,2.011309942E0
1.055879657E0,2.181118727E-1,1.761482596E0,9.319824576E-1,2.004740639E0
1.058323824E0,1.478624344E-1,1.710169911E0,9.863494039E-1,1.979754927E0
1.060768772E0,7.333692163E-2,1.641142249E0,1.037661910E0,1.943056465E0
1.063214501E0,-7.908083498E-3,1.556842923E0,1.082865953E0,1.896423238E0
1.065659449E0,-9.587260336E-2,1.463380575E0,1.123793840E0,1.847589473E0
1.068103615E0,-1.905566305E-1,1.360755324E0,1.159224033E0,1.797711668E0
1.070548511E0,-2.889058590E-1,1.248967052E0,1.188545465E0,1.748149197E0
1.072994292E0,-3.890876770E-1,1.125572443E0,1.210536599E0,1.698146461E0
1.075439188E0,-4.862151742E-1,9.862952232E-1,1.228251696E0,1.648570802E0
1.077883355E0,-5.760122538E-1,8.366333842E-1,1.241079807E0,1.603753293E0
1.080328303E0,-6.658093929E-1,6.857498288E-1,1.249632001E0,1.573256213E0
1.082774032E0,-7.525522113E-1,5.434183478E-1,1.250853658E0,1.557649898E0
1.085218980E0,-8.356297612E-1,4.139149785E-1,1.250242829E0,1.559714666E0
1.087663147E0,-9.132096171E-1,2.935746312E-1,1.246577621E0,1.572925183E0
1.090108094E0,-9.822373390E-1,1.891167760E-1,1.240468979E0,1.593523967E0
1.092553824E0,-1.049432397E0,1.054283082E-1,1.230695128E0,1.620812754E0
1.094998772E0,-1.108686328E0,3.395713121E-2,1.218477845E0,1.647733813E0
1.097442938E0,-1.161831498E0,-2.040982433E-2,1.207482338E0,1.675793122E0
1.099887886E0,-1.209478974E0,-5.950516835E-2,1.192821503E0,1.699765687E0
1.102333615E0,-1.250406981E0,-8.882667124E-2,1.175106525E0,1.718220923E0
1.104778563E0,-1.282782793E0,-1.150938570E-1,1.158613086E0,1.732386381E0
1.107222678E0,-1.299886942E0,-1.413610429E-1,1.140287161E0,1.734918965E0
1.109667626E0,-1.308439136E0,-1.651847661E-1,1.125626445E0,1.733878275E0
1.112113355E0,-1.307217360E0,-1.847324371E-1,1.110965729E0,1.725453027E0
1.114558303E0,-1.298054338E0,-1.957280040E-1,1.099359274E0,1.712263218E0
1.117002469E0,-1.285837054E0,-1.975605935E-1,1.093250632E0,1.699295167E0
1.119447417E0,-1.267511129E0,-1.896193475E-1,1.088974595E0,1.681786440E0
1.121893147E0,-1.244298339E0,-1.804563850E-1,1.089585423E0,1.663742546E0
1.124338094E0,-1.213144183E0,-1.761803329E-1,1.093861461E0,1.642951982E0
1.126782261E0,-1.180768371E0,-1.694608182E-1,1.099359274E0,1.622196575E0
1.129227209E0,-1.147170782E0,-1.535783261E-1,1.104246140E0,1.599670792E0
1.131672938E0,-1.120292783E0,-1.248676926E-1,1.106689572E0,1.579686573E0
1.134117886E0,-1.098301649E0,-8.882667124E-2,1.104246140E0,1.559973149E0
1.136562053E0,-1.078753948E0,-4.301182181E-2,1.099359274E0,1.540827995E0
1.139006949E0,-1.056762815E0,2.803036477E-3,1.085309386E0,1.514810868E0
1.141452730E0,-1.026830435E0,3.762232512E-2,1.065761685E0,1.480420262E0
1.143897678E0,-9.852916598E-1,5.472653359E-2,1.043159723E0,1.435958515E0
1.146341792E0,-9.309247136E-1,6.022431701E-2,1.017503381E0,1.380420559E0
1.148786740E0,-8.655621409E-1,5.594826490E-2,9.918471575E-1,1.317607230E0
1.151232469E0,-7.977561951E-1,5.778086185E-2,9.692451954E-1,1.256658197E0
1.153677417E0,-7.330045104E-1,7.366333902E-2,9.503083825E-1,1.202417532E0
1.156121584E0,-6.725289226E-1,9.993052483E-2,9.362584949E-1,1.157091712E0
1.158566532E0,-6.206054091E-1,1.359715462E-1,9.270955324E-1,1.123897443E0
1.161012261E0,-5.735688210E-1,1.671256423E-1,9.160999656E-1,1.093687030E0
1.163457209E0,-5.277539492E-1,1.842298508E-1,9.014391899E-1,1.060687269E0
1.165901376E0,-4.856043160E-1,1.854515821E-1,8.794480562E-1,1.021583440E0
1.168346324E0,-4.477306902E-1,1.707908362E-1,8.501265645E-1,9.758829112E-1
1.170792053E0,-4.098570645E-1,1.335280836E-1,8.098095059E-1,9.173897745E-1
1.173237001E0,-3.756486475E-1,8.160458505E-2,7.554425001E-1,8.476229030E-1
1.175681115E0,-3.524357975E-1,2.601589449E-2,6.894691586E-1,7.747616013E-1
1.178126063E0,-3.322772682E-1,-3.079452552E-2,6.106675863E-1,6.958961034E-1
1.180571844E0,-3.188382387E-1,-8.577235043E-2,5.233139396E-1,6.187666749E-1
1.183016792E0,-3.115078509E-1,-1.321980655E-1,4.292407334E-1,5.465904105E-1
1.185460907E0,-3.066209257E-1,-1.706825495E-1,3.266154528E-1,4.794023141E-1
1.187905855E0,-2.986797094E-1,-2.073344290E-1,2.191032916E-1,4.245036946E-1
1.190351584E0,-2.858515382E-1,-2.409319878E-1,1.067041606E-1,3.887738449E-1
1.192796532E0,-2.687473297E-1,-2.733078301E-1,-6.916671991E-3,3.833668446E-1
1.195240699E0,-2.437018603E-1,-3.044619262E-1,-1.211483628E-1,4.083682003E-1
1.197685647E0,-2.125477642E-1,-3.331725895E-1,-2.317148745E-1,4.581182266E-1
1.200131376E0,-1.728415489E-1,-3.508876562E-1,-3.355619013E-1,5.153621425E-1
1.202576324E0,-1.251941025E-1,-3.490550518E-1,-4.320785105E-1,5.693898768E-1
1.205020490E0,-9.342914075E-2,-3.417246938E-1,-5.175995827E-1,6.272273102E-1
1.207465438E0,-4.211650789E-2,-3.044619262E-1,-5.921250582E-1,6.671453734E-1
1.209911167E0,3.698346205E-3,-2.592579424E-1,-6.556549668E-1,7.050615534E-1
1.212356115E0,5.501098186E-2,-2.055018395E-1,-7.094110847E-1,7.406222392E-1
1.214800230E0,1.148757264E-1,-1.450262219E-1,-7.533933520E-1,7.757774039E-1
1.217245178E0,1.643557698E-1,-8.516147733E-2,-7.906560898E-1,8.120359281E-1
1.219690907E0,2.291074395E-1,-2.285328321E-2,-8.224210739E-1,8.540426888E-1
1.222135855E0,2.761439979E-1,2.418330126E-2,-8.517425656E-1,8.957152102E-1
1.224580022E0,3.451717198E-1,6.022431701E-2,-8.786206245E-1,9.459094494E-1
1.227024969E0,3.964843452E-1,6.511123478E-2,-9.085530043E-1,9.934323683E-1
1.229470699E0,4.520730376E-1,7.549594343E-2,-9.348201752E-1,1.041133243E0
1.231915647E0,4.832271338E-1,8.282631636E-2,-9.647525549E-1,1.082181202E0
1.234359813E0,5.064399838E-1,9.931965172E-2,-9.946848750E-1,1.120599773E0
1.236804761E0,5.180464387E-1,1.115369499E-1,-1.019730449E0,1.149200936E0
1.239250490E0,5.131595135E-1,1.121478230E-1,-1.044165015E0,1.168841477E0
1.241695438E0,5.265985131E-1,9.504359961E-2,-1.063101888E0,1.190178517E0
1.244139553E0,5.259876847E-1,4.373096675E-2,-1.077151775E0,1.199512980E0
1.246584501E0,5.492005348E-1,-6.970800925E-3,-1.081427813E0,1.212912170E0
1.249030282E0,5.449244976E-1,-6.072689965E-2,-1.077762604E0,1.209215735E0
1.251475230E0,5.546982884E-1,-9.065926075E-2,-1.066156149E0,1.205237830E0
1.253919344E0,5.565308928E-1,-1.303654760E-1,-1.047219396E0,1.193059200E0
1.256364292E0,5.687482357E-1,-1.676282287E-1,-1.020341396E0,1.180114547E0
1.258810022E0,5.876849890E-1,-2.012257874E-1,-9.867436886E-1,1.165988238E0
1.261254969E0,5.986805558E-1,-2.323798835E-1,-9.458157420E-1,1.143234987E0
1.263699136E0,6.328889728E-1,-2.610905468E-1,-8.981682658E-1,1.129346253E0
1.266144084E0,6.487714648E-1,-3.038510680E-1,-8.468556404E-1,1.109231428E0
1.268589813E0,6.866450906E-1,-3.288965225E-1,-7.876017690E-1,1.095431855E0
1.271034761E0,6.976406574E-1,-3.557745814E-1,-7.295696139E-1,1.070303630E0
1.273478928E0,7.208535075E-1,-3.631049395E-1,-6.715374589E-1,1.049970254E0
1.275923876E0,7.208535075E-1,-3.741005063E-1,-6.165596247E-1,1.019669917E0
1.278369605E0,7.202426791E-1,-3.753222525E-1,-5.683013201E-1,9.912530961E-1
1.280814553E0,7.147448659E-1,-3.924264610E-1,-5.328711867E-1,9.740690182E-1
1.283258667E0,6.970297694E-1,-4.223588407E-1,-5.102691650E-1,9.615675278E-1
1.285703615E0,6.909211278E-1,-4.645085037E-1,-5.017170906E-1,9.720391936E-1
1.288149397E0,6.579344273E-1,-5.317035913E-1,-5.072148442E-1,9.863332691E-1
1.290594292E0,6.396085024E-1,-5.958443880E-1,-5.230973363E-1,1.018705254E0
1.293038459E0,5.901284814E-1,-6.825871468E-1,-5.536405444E-1,1.058628684E0
1.295483407E0,5.522548556E-1,-7.662756443E-1,-5.878490210E-1,1.112533262E0
1.297929136E0,5.003313422E-1,-8.676791787E-1,-6.226682663E-1,1.179370332E0
1.300374084E0,4.551273584E-1,-9.666392803E-1,-6.574875712E-1,1.254520752E0
1.302818251E0,4.117559791E-1,-1.073540568E0,-6.843656301E-1,1.338054055E0
1.305263199E0,3.622759283E-1,-1.181663632E0,-7.008589506E-1,1.420836393E0
1.307708928E0,3.299000859E-1,-1.281234622E0,-7.063567638E-1,1.499778684E0
1.310153876E0,2.956916690E-1,-1.376529455E0,-6.965829134E-1,1.570826107E0
1.312598042E0,2.706462145E-1,-1.463272333E0,-6.715374589E-1,1.632598497E0
1.315042938E0,2.468225062E-1,-1.540241241E0,-6.336638331E-1,1.683684734E0
1.317488719E0,2.236096561E-1,-1.600106001E0,-5.829620957E-1,1.717610345E0
1.319933615E0,2.040619850E-1,-1.646531701E0,-5.267625451E-1,1.740743150E0
1.322377782E0,1.863469034E-1,-1.680740118E0,-4.638434947E-1,1.753500299E0
1.324822730E0,1.729078740E-1,-1.708839893E0,-4.009244144E-1,1.763737877E0
1.327268459E0,1.661883742E-1,-1.738161445E0,-3.380053639E-1,1.778502575E0
1.329713407E0,1.619123220E-1,-1.758930802E0,-2.787514925E-1,1.788226932E0
1.332157574E0,1.582471281E-1,-1.769926429E0,-2.317148745E-1,1.792030552E0
1.334602522E0,1.551928073E-1,-1.776645899E0,-1.975064576E-1,1.794314426E0
1.337048251E0,1.521384865E-1,-1.777867556E0,-1.797913760E-1,1.793400151E0
1.339493199E0,1.539710760E-1,-1.783365369E0,-1.785696447E-1,1.798884724E0
1.341937365E0,1.625231802E-1,-1.798026204E0,-1.913978010E-1,1.815473804E0
1.344382313E0,1.722970158E-1,-1.806578279E0,-2.152215391E-1,1.827493269E0
1.346828042E0,1.802382618E-1,-1.800469637E0,-2.445430607E-1,1.825918414E0
1.349272990E0,1.881794930E-1,-1.771758914E0,-2.738645673E-1,1.802648877E0
1.351717105E0,1.918446869E-1,-1.716170311E0,-3.044078052E-1,1.753484825E0
1.354162053E0,1.973424703E-1,-1.639812231E0,-3.367836177E-1,1.685630864E0
1.356607834E0,2.077271640E-1,-1.553069353E0,-3.648833930E-1,1.608824068E0
1.359052730E0,2.278857082E-1,-1.469991803E0,-3.905397356E-1,1.537962640E0
1.361496897E0,2.608723938E-1,-1.397909760E0,-4.125308394E-1,1.480671401E0
1.363941844E0,3.030220568E-1,-1.333158135E0,-4.314676523E-1,1.433630816E0
1.366387574E0,3.512803614E-1,-1.271460772E0,-4.455175400E-1,1.392298913E0
1.368832522E0,3.989278078E-1,-1.214039445E0,-4.497936070E-1,1.354750700E0
1.371276688E0,4.422992170E-1,-1.149898648E0,-4.473501444E-1,1.310731723E0
1.373721636E0,4.746750295E-1,-1.076594949E0,-4.394088984E-1,1.255967057E0
1.376167365E0,4.930009842E-1,-9.953498840E-1,-4.271916151E-1,1.190068922E0
1.378612313E0,5.033856630E-1,-9.153266549E-1,-4.137525856E-1,1.123570742E0
1.381056428E0,5.088834763E-1,-8.444663286E-1,-3.954266310E-1,1.062284328E0
1.383501376E0,5.143812299E-1,-7.913210988E-1,-3.801550269E-1,1.017494460E0
1.385947157E0,5.211007595E-1,-7.528365850E-1,-3.648833930E-1,9.856210306E-1
1.388392105E0,5.265985131E-1,-7.210716605E-1,-3.538878262E-1,9.604618301E-1
1.390836219E0,5.272094011E-1,-6.905283928E-1,-3.392270803E-1,9.326597589E-1
1.393281167E0,5.241550803E-1,-6.465461254E-1,-3.245663345E-1,8.933665239E-1
1.395726897E0,5.168247223E-1,-5.927900672E-1,-3.099055886E-1,8.453101982E-1
1.398171844E0,5.113269091E-1,-5.304818153E-1,-2.952448130E-1,7.937478592E-1
1.400616011E0,5.082725883E-1,-4.590107203E-1,-2.787514925E-1,7.394148091E-1
1.403060959E0,5.052182674E-1,-3.777657151E-1,-2.610363960E-1,6.827096259E-1
1.405506688E0,5.052182674E-1,-2.952989638E-1,-2.439321727E-1,6.339951740E-1
1.407951636E0,5.039965510E-1,-2.036692351E-1,-2.256062329E-1,5.885506377E-1
1.410395803E0,5.046074390E-1,-1.126503944E-1,-2.054477036E-1,5.563519909E-1
1.412840751E0,5.033856630E-1,-2.040982433E-2,-1.846783012E-1,5.365815517E-1
1.415286480E0,5.052182674E-1,6.511123478E-2,-1.602437049E-1,5.340065689E-1
1.417731428E0,5.058291554E-1,1.494105607E-1,-1.351982504E-1,5.444861955E-1
1.420175542E0,5.064399838E-1,2.318773121E-1,-1.089310795E-1,5.675513414E-1
1.422620490E0,5.070508718E-1,3.125114441E-1,-8.266389370E-2,6.013296173E-1
1.425066219E0,5.094943047E-1,3.900912404E-1,-5.089893192E-2,6.436973851E-1
1.427511167E0,5.119377971E-1,4.646167457E-1,-1.791223697E-2,6.915705869E-1
1.429955334E0,5.131595135E-1,5.434183478E-1,2.118310519E-2,7.477198078E-1
1.432400282E0,5.119377971E-1,6.326045990E-1,6.455450505E-2,8.163554195E-1
1.434846011E0,5.052182674E-1,7.303429246E-1,1.146454066E-1,8.954271911E-1
1.437290959E0,4.984987974E-1,8.323573470E-1,1.696232408E-1,9.849324078E-1
1.439735126E0,4.899466634E-1,9.368152022E-1,2.288771123E-1,1.081690893E0
1.442180074E0,4.801728129E-1,1.038829565E0,2.924070358E-1,1.181200521E0
1.444625803E0,4.673446715E-1,1.130459309E0,3.565478325E-1,1.274156838E0
1.447070751E0,4.557382464E-1,1.203152180E0,4.212994874E-1,1.353796800E0
1.449514917E0,4.435209334E-1,1.258740902E0,4.860511422E-1,1.420346855E0
1.451959813E0,4.282493293E-1,1.297225356E0,5.508028269E-1,1.472947680E0
1.454405594E0,4.050364494E-1,1.324714303E0,6.143327951E-1,1.515363749E0
1.456850542E0,3.720497787E-1,1.346705437E0,6.766409874E-1,1.552378690E0
1.459294657E0,3.256240487E-1,1.372361779E0,7.352839708E-1,1.590613213E0
1.461739605E0,2.639267147E-1,1.396796346E0,7.927052975E-1,1.627599162E0
1.464185334E0,1.936772764E-1,1.404126763E0,8.476830721E-1,1.651559701E0
1.466630282E0,1.209843755E-1,1.391909480E0,9.014391899E-1,1.662721213E0
1.469074449E0,4.523714632E-2,1.362587929E0,9.509192109E-1,1.662209255E0
1.471519397E0,-3.356440365E-2,1.312497020E0,9.955123663E-1,1.647671043E0
1.473965126E0,-1.129768118E-1,1.242247581E0,1.038883686E0,1.623336726E0
1.476410074E0,-1.942218095E-1,1.159780860E0,1.078589797E0,1.595672180E0
1.478854240E0,-2.815755010E-1,1.075481534E0,1.113409162E0,1.573411978E0
1.481299188E0,-3.701508641E-1,9.844626188E-1,1.144563198E0,1.554414110E0
1.483744917E0,-4.550610781E-1,8.885568976E-1,1.170219541E0,1.538189754E0
1.486189865E0,-5.387495160E-1,7.950946093E-1,1.194043279E0,1.532372615E0
1.488633980E0,-6.187728047E-1,7.095735073E-1,1.210536599E0,1.533549218E0
1.491078928E0,-6.957417727E-1,6.350480318E-1,1.222143054E0,1.543041238E0
1.493524709E0,-7.653803229E-1,5.733506680E-1,1.229473472E0,1.557608117E0
1.495969657E0,-8.246341944E-1,5.281466842E-1,1.231916904E0,1.573715265E0
1.498413772E0,-8.808338046E-1,5.012686849E-1,1.231916904E0,1.595229684E0
1.500858719E0,-9.254269004E-1,4.890513122E-1,1.229473472E0,1.614679891E0
1.503304449E0,-9.571918845E-1,4.859969914E-1,1.223364830E0,1.627584372E0
1.505749397E0,-9.791830182E-1,4.859969914E-1,1.217256188E0,1.636063901E0
1.508193563E0,-9.889568090E-1,4.841644466E-1,1.208093166E0,1.634606950E0
1.510638511E0,-9.859024882E-1,4.823318422E-1,1.201984525E0,1.627702221E0
1.513084240E0,-9.785721302E-1,4.902730882E-1,1.194043279E0,1.619787167E0
1.515529188E0,-9.694091678E-1,5.073773265E-1,1.184880257E0,1.612801013E0
1.517973355E0,-9.578027129E-1,5.281466842E-1,1.172052145E0,1.603131681E0
1.520418303E0,-9.461963177E-1,5.550247431E-1,1.157391429E0,1.594645684E0
1.522864032E0,-9.358115792E-1,5.861788392E-1,1.140287161E0,1.587325976E0
1.525308980E0,-9.309247136E-1,6.301611066E-1,1.115241766E0,1.583504986E0
1.527753094E0,-9.284812212E-1,6.790302992E-1,1.090807080E0,1.585250646E0
1.530198042E0,-9.309247136E-1,7.382841706E-1,1.062096477E0,1.593654060E0
1.532643772E0,-9.327572584E-1,7.969272137E-1,1.034607530E0,1.604849472E0
1.535088719E0,-9.309247136E-1,8.457963467E-1,1.005286217E0,1.610152993E0
1.537532886E0,-9.174856544E-1,8.787830472E-1,9.771864414E-1,1.602789104E0
1.539977834E0,-8.912184834E-1,8.934438229E-1,9.533627033E-1,1.581585500E0
1.542423563E0,-8.563991785E-1,8.989415765E-1,9.332041740E-1,1.553185611E0
1.544868511E0,-8.130277991E-1,8.916112185E-1,9.215977192E-1,1.518330373E0
1.547312678E0,-7.623260021E-1,8.824482560E-1,9.185433984E-1,1.484445295E0
1.549757626E0,-7.128459811E-1,8.769504428E-1,9.264846444E-1,1.461357338E0
1.552203355E0,-6.676419973E-1,8.812265396E-1,9.423671365E-1,1.452708460E0
1.554648303E0,-6.316009760E-1,8.934438229E-1,9.655799866E-1,1.459282827E0
1.557092417E0,-6.028903127E-1,9.123806357E-1,9.949014783E-1,1.478426226E0
1.559537365E0,-5.784557462E-1,9.245979190E-1,1.024222851E0,1.496170047E0
1.561983147E0,-5.595189333E-1,9.252088070E-1,1.049268365E0,1.506664155E0
1.564428094E0,-5.411930084E-1,9.050502181E-1,1.062707305E0,1.497114754E0
1.566872209E0,-5.204235911E-1,8.543484807E-1,1.063929081E0,1.460375681E0
1.569317157E0,-4.978215992E-1,7.786012292E-1,1.048046589E0,1.397300208E0
1.571762886E0,-4.776630700E-1,6.936910748E-1,1.013838172E0,1.318042926E0
1.574207834E0,-4.611697197E-1,6.093916893E-1,9.625256658E-1,1.229020504E0
1.576652001E0,-4.538393319E-1,5.299792886E-1,8.989957571E-1,1.137998927E0
1.579096949E0,-4.465089738E-1,4.609515667E-1,8.226376176E-1,1.043350018E0
1.581542678E0,-4.465089738E-1,4.078063369E-1,7.346731424E-1,9.515360731E-1
1.583987626E0,-4.477306902E-1,3.674892485E-1,6.387673616E-1,8.622846752E-1
1.586431792E0,-4.483415484E-1,3.345025480E-1,5.336986184E-1,7.731340854E-1
1.588876740E0,-4.471198320E-1,3.076245189E-1,4.249646664E-1,6.893068667E-1
1.591322469E0,-4.373459816E-1,2.831899226E-1,3.101221025E-1,6.063363409E-1
1.593767417E0,-4.232960939E-1,2.563118637E-1,1.965012848E-1,5.324360145E-1
1.596211532E0,-4.019158483E-1,2.343207747E-1,8.288043737E-2,4.725587174E-1
1.598656480E0,-3.744269311E-1,2.147730887E-1,-2.402088419E-2,4.323193371E-1
1.601102209E0,-3.389967680E-1,2.001123428E-1,-1.223700941E-1,4.122356103E-1
1.603547157E0,-2.974579632E-1,1.982797384E-1,-2.139998078E-1,4.166437475E-1
1.605991324E0,-2.534756958E-1,2.068318576E-1,-2.921904922E-1,4.386395210E-1
1.608436272E0,-2.094934285E-1,2.337098867E-1,-3.587747514E-1,4.766834694E-1
1.610882001E0,-1.636785865E-1,2.715834975E-1,-4.149743021E-1,5.222565913E-1
1.613326949E0,-1.184745952E-1,3.222852647E-1,-4.620108902E-1,5.756371116E-1
1.615771115E0,-7.265974581E-2,3.723761737E-1,-5.004953742E-1,6.280438464E-1
1.618216063E0,-2.501229569E-2,4.194127619E-1,-5.359255075E-1,6.809910641E-1
1.620661792E0,2.324601635E-2,4.566754997E-1,-5.695230365E-1,7.303761896E-1
1.623106740E0,6.967173517E-2,4.798883498E-1,-6.043423414E-1,7.748397541E-1
1.625550855E0,1.173191816E-1,4.866078794E-1,-6.385507584E-1,8.113557109E-1
1.627995803E0,1.594688594E-1,4.817209542E-1,-6.715374589E-1,8.416935033E-1
1.630441584E0,1.967316121E-1,4.603407085E-1,-7.014698386E-1,8.617869978E-1
1.632886532E0,2.291074395E-1,4.316300452E-1,-7.307913303E-1,8.791192657E-1
1.635330647E0,2.498768270E-1,3.980324864E-1,-7.558367848E-1,8.900323220E-1
1.637775594E0,2.639267147E-1,3.577154279E-1,-7.772170901E-1,8.953681049E-1
1.640221324E0,2.718679607E-1,3.088462353E-1,-7.967647314E-1,8.967341982E-1
1.642666272E0,2.767548561E-1,2.544792891E-1,-8.157015443E-1,8.981770250E-1
1.645110438E0,2.791983187E-1,1.927819550E-1,-8.315840364E-1,8.981361772E-1
1.647555386E0,2.791983187E-1,1.316954941E-1,-8.468556404E-1,9.013655640E-1
1.650001115E0,2.773657441E-1,6.694383919E-2,-8.633489609E-1,9.092769995E-1
1.652446063E0,2.761439979E-1,-3.916478250E-3,-8.798423409E-1,9.221677674E-1
1.654890230E0,2.828635275E-1,-8.455061913E-2,-8.963356614E-1,9.437045090E-1
1.657335178E0,2.932482064E-1,-1.761803329E-1,-9.134398699E-1,9.754006439E-1
1.659780907E0,3.005785942E-1,-2.568144798E-1,-9.244354367E-1,1.005426300E0
1.662225855E0,3.030220568E-1,-3.142357767E-1,-9.342092872E-1,1.031170928E0
1.664669969E0,2.993568778E-1,-3.466115892E-1,-9.397071004E-1,1.045372454E0
1.667114917E0,2.975242734E-1,-3.643266857E-1,-9.439831376E-1,1.054684214E0
1.669560647E0,2.999677360E-1,-3.777657151E-1,-9.464265704E-1,1.062266836E0
1.672005594E0,3.115741611E-1,-3.881503940E-1,-9.494808912E-1,1.072032252E0
1.674449761E0,3.323435485E-1,-3.936481774E-1,-9.488700628E-1,1.079706218E0
1.676894709E0,3.598324656E-1,-3.985351026E-1,-9.470374584E-1,1.088664126E0
1.679340438E0,3.909865618E-1,-3.948699236E-1,-9.409288168E-1,1.092767032E0
1.681785386E0,4.184754789E-1,-3.728787899E-1,-9.342092872E-1,1.089452757E0
1.684229553E0,4.410774708E-1,-3.368377686E-1,-9.256572127E-1,1.079282305E0
1.686674501E0,4.594034255E-1,-2.916337848E-1,-9.152724743E-1,1.064812413E0
1.689120230E0,4.722315669E-1,-2.482623607E-1,-9.036660790E-1,1.049404229E0
1.691565178E0,4.844488800E-1,-2.195517272E-1,-8.926705122E-1,1.039112276E0
1.694009292E0,4.966661930E-1,-2.116104811E-1,-8.786206245E-1,1.031227669E0
1.696454292E0,5.070508718E-1,-2.274929732E-1,-8.590729237E-1,1.023161731E0
1.698900022E0,5.143812299E-1,-2.592579424E-1,-8.358600736E-1,1.015118118E0
1.701344969E0,5.162138343E-1,-3.081271350E-1,-8.065385818E-1,1.005944103E0
1.703789084E0,5.162138343E-1,-3.686027229E-1,-7.759953141E-1,1.002254168E0
1.706234032E0,5.064399838E-1,-4.370195866E-1,-7.448412180E-1,1.001127373E0
1.708679761E0,4.887249172E-1,-5.054363608E-1,-7.161306143E-1,1.003574121E0
1.711124709E0,4.661229253E-1,-5.762966871E-1,-6.916959882E-1,1.013820395E0
1.713568876E0,4.343579710E-1,-6.447135806E-1,-6.758134961E-1,1.030071031E0
1.716013824E0,3.958734870E-1,-7.161847353E-1,-6.690940261E-1,1.057035103E0
1.718459553E0,3.573890030E-1,-7.925428152E-1,-6.703157425E-1,1.097804267E0
1.720904501E0,3.176828027E-1,-8.750095367E-1,-6.819221377E-1,1.153941877E0
1.723348667E0,2.834743857E-1,-9.586980343E-1,-7.002481222E-1,1.220576536E0
1.725793615E0,2.486551106E-1,-1.047273397E0,-7.210174799E-1,1.295560550E0
1.728239344E0,2.229987830E-1,-1.137070537E0,-7.405651808E-1,1.375170771E0
1.730684292E0,2.003967911E-1,-1.223202467E0,-7.576693892E-1,1.452737434E0
1.733128407E0,1.839034408E-1,-1.302614808E0,-7.680540681E-1,1.523329533E0
1.735573355E0,1.722970158E-1,-1.371642590E0,-7.711083889E-1,1.582939608E0
1.738019136E0,1.649666429E-1,-1.430285573E0,-7.649997473E-1,1.630385055E0
1.740464032E0,1.606905907E-1,-1.471824408E0,-7.503390312E-1,1.659848552E0
1.742908199E0,1.545819342E-1,-1.492593765E0,-7.301805019E-1,1.668800554E0
1.745353147E0,1.490841508E-1,-1.498702407E0,-7.026915550E-1,1.661959810E0
1.747798876E0,1.454189718E-1,-1.496258974E0,-6.745917797E-1,1.647729245E0
1.750243824E0,1.460298300E-1,-1.490150332E0,-6.471028924E-1,1.631139135E0
1.752687990E0,1.503058821E-1,-1.484652519E0,-6.245008707E-1,1.617648385E0
1.755132938E0,1.545819342E-1,-1.477933049E0,-6.092292666E-1,1.606032992E0
1.757578667E0,1.613014489E-1,-1.472435236E0,-6.080075502E-1,1.601173589E0
1.760023615E0,1.674101055E-1,-1.473657012E0,-6.183922291E-1,1.606891434E0
1.762467782E0,1.808491200E-1,-1.488317728E0,-6.416050792E-1,1.630782984E0
1.764912730E0,1.961207390E-1,-1.506643653E0,-6.721483469E-1,1.661391538E0
1.767358459E0,2.120032161E-1,-1.517028332E0,-7.063567638E-1,1.686789910E0
1.769803407E0,2.236096561E-1,-1.509087086E0,-7.393434644E-1,1.695279879E0
1.772247522E0,2.339943498E-1,-1.480987310E0,-7.686649561E-1,1.684910260E0
1.774692469E0,2.394921333E-1,-1.421733499E0,-7.918778062E-1,1.644917348E0
1.777138199E0,2.413247377E-1,-1.341099381E0,-8.126472235E-1,1.586562539E0
1.779583147E0,2.498768270E-1,-1.253134847E0,-8.285297155E-1,1.522907372E0
1.782027313E0,2.682027519E-1,-1.175554991E0,-8.401361108E-1,1.469588697E0
1.784472261E0,2.981351316E-1,-1.109581590E0,-8.462447524E-1,1.426949909E0
1.786917990E0,3.347870111E-1,-1.054603815E0,-8.480773568E-1,1.394097110E0
1.789362938E0,3.763258159E-1,-1.003902078E0,-8.431904316E-1,1.363968697E0
1.791807105E0,4.129776955E-1,-9.501459002E-1,-8.346383572E-1,1.330394301E0
1.794252053E0,4.429100752E-1,-8.921137452E-1,-8.181449771E-1,1.288952083E0
1.796697782E0,4.679555297E-1,-8.298055530E-1,-7.979864478E-1,1.242715577E0
1.799142730E0,4.868923426E-1,-7.662756443E-1,-7.729409933E-1,1.192342357E0
1.801586897E0,5.021639466E-1,-7.027456760E-1,-7.442303896E-1,1.140131127E0
1.804031792E0,5.125486255E-1,-6.349397302E-1,-7.136871219E-1,1.084068200E0
1.806477522E0,5.198790431E-1,-5.585816503E-1,-6.800895929E-1,1.022159251E0
1.808922469E0,5.223224759E-1,-4.748931825E-1,-6.446594000E-1,9.559968858E-1
1.811366636E0,5.259876847E-1,-3.869286776E-1,-6.110618711E-1,8.943005402E-1
1.813811584E0,5.320963264E-1,-2.959098220E-1,-5.768534541E-1,8.387186839E-1
1.816257313E0,5.351506472E-1,-2.048909664E-1,-5.426450372E-1,7.891958943E-1
1.818702261E0,5.388158560E-1,-1.126503944E-1,-5.084365606E-1,7.493466315E-1
1.821146428E0,5.406484008E-1,-1.979895867E-2,-4.736173153E-1,7.190313299E-1
1.823591376E0,5.406484008E-1,6.755469739E-2,-4.369654357E-1,6.984290389E-1
1.826037105E0,5.400375724E-1,1.475779712E-1,-3.997026980E-1,6.878823184E-1
1.828482053E0,5.382049680E-1,2.178274244E-1,-3.606073558E-1,6.834844837E-1
1.830926219E0,5.314854383E-1,2.892985642E-1,-3.227337301E-1,6.858042658E-1
1.833371115E0,5.192681551E-1,3.607697487E-1,-2.854709923E-1,6.937491736E-1
1.835816897E0,5.052182674E-1,4.346843660E-1,-2.482082397E-1,7.111985138E-1
1.838261844E0,4.917792380E-1,5.031012297E-1,-2.127780765E-1,7.350048817E-1
1.840705959E0,4.789510965E-1,5.690746307E-1,-1.742935926E-1,7.639491767E-1
1.843150907E0,4.642903507E-1,6.399349570E-1,-1.284787357E-1,8.009925496E-1
1.845596636E0,4.490187168E-1,7.169039249E-1,-7.899871469E-2,8.495939280E-1
1.848041584E0,4.306927919E-1,8.005923629E-1,-2.279915474E-2,9.093757276E-1
1.850485751E0,4.099233747E-1,8.897786140E-1,3.584385663E-2,9.803203237E-1
1.852930699E0,3.873213828E-1,9.807974100E-1,9.876292944E-2,1.059120168E0
1.855376428E0,3.647193909E-1,1.066929340E0,1.653471887E-1,1.139604381E0
1.857821376E0,3.445608616E-1,1.141454935E0,2.362075001E-1,1.215498062E0
1.860265542E0,3.244023323E-1,1.205595732E0,3.070677817E-1,1.285686029E0
1.862710490E0,3.011894524E-1,1.258130074E0,3.809824288E-1,1.348611871E0
1.865156219E0,2.767548561E-1,1.305777550E0,4.548970461E-1,1.410170054E0
1.867601167E0,2.486551106E-1,1.347927213E0,5.282008648E-1,1.468922492E0
1.870045282E0,2.126140893E-1,1.390076876E0,6.002829075E-1,1.529005572E0
1.872490230E0,1.722970158E-1,1.433448195E0,6.741974950E-1,1.593424693E0
1.874935959E0,1.222060993E-1,1.476208806E0,7.456687093E-1,1.658357197E0
1.877380907E0,7.089346647E-2,1.511638880E0,8.153072596E-1,1.718954308E0
1.879825074E0,1.530477498E-2,1.530575752E0,8.849458694E-1,1.768057002E0
1.882270022E0,-4.211650789E-2,1.536684394E0,9.515300989E-1,1.807922082E0
1.884715751E0,-9.953778982E-2,1.526910543E0,1.013227344E0,1.835209315E0
1.887160699E0,-1.624568552E-1,1.506752014E0,1.071259499E0,1.855880054E0
1.889604865E0,-2.290410995E-1,1.475597858E0,1.125626445E0,1.869995657E0
1.892049813E0,-2.986797094E-1,1.430393934E0,1.176939011E0,1.876278713E0
1.894495542E0,-3.707617223E-1,1.373583436E0,1.220310450E0,1.874394116E0
1.896940490E0,-4.446763694E-1,1.308220983E0,1.257573247E0,1.868333397E0
1.899384605E0,-5.210344791E-1,1.231862903E0,1.288116455E0,1.856934878E0
1.901829605E0,-5.961708426E-1,1.151228666E0,1.312551022E0,1.844867827E0
1.904275334E0,-6.725289226E-1,1.073037982E0,1.330876946E0,1.837100735E0
1.906720282E0,-7.464435101E-1,1.002177715E0,1.341261625E0,1.833172342E0
1.909164397E0,-8.166930079E-1,9.423130155E-1,1.347370267E0,1.835850736E0
1.911609344E0,-8.832772374E-1,8.879460096E-1,1.347981215E0,1.840021779E0
1.914055074E0,-9.431419969E-1,8.439637423E-1,1.344926834E0,1.846786348E0
1.916500022E0,-9.950654507E-1,8.128096461E-1,1.340650797E0,1.856922005E0
1.918944188E0,-1.040880322E0,7.932620049E-1,1.335152984E0,1.869580152E0
1.921389136E0,-1.078143120E0,7.792121172E-1,1.331487894E0,1.882132865E0
1.923834865E0,-1.100134254E0,7.633296251E-1,1.329044342E0,1.886617703E0
1.926279813E0,-1.108075500E0,7.437819839E-1,1.327822685E0,1.882592902E0
1.928723980E0,-1.104410291E0,7.236233950E-1,1.331487894E0,1.875156772E0
1.931168928E0,-1.094025612E0,7.101843953E-1,1.334542155E0,1.866080566E0
1.933614657E0,-1.073867083E0,6.991888285E-1,1.341261625E0,1.855003579E0
1.936059605E0,-1.046378136E0,6.863606572E-1,1.349202871E0,1.840202854E0
1.938503719E0,-1.018889189E0,6.778085828E-1,1.354089856E0,1.825135335E0
1.940948667E0,-9.944546223E-1,6.845280528E-1,1.355922461E0,1.815501135E0
1.943394397E0,-9.871242642E-1,7.162930369E-1,1.354700685E0,1.822828564E0
1.945839344E0,-9.883459806E-1,7.700491548E-1,1.347370267E0,1.839894050E0
1.948283511E0,-9.993414879E-1,8.378551006E-1,1.335763931E0,1.866802041E0
1.950728459E0,-1.009115338E0,9.056611061E-1,1.317438006E0,1.890549842E0
1.953174188E0,-1.007893682E0,9.588063359E-1,1.294835925E0,1.900462927E0
1.955619136E0,-9.877350926E-1,9.850735664E-1,1.267347097E0,1.884717276E0
1.958063303E0,-9.486397505E-1,9.850735664E-1,1.241079807E0,1.846771885E0
1.960508251E0,-8.893858790E-1,9.618606567E-1,1.218477845E0,1.789097936E0
1.962953980E0,-8.215798736E-1,9.362043142E-1,1.206260562E0,1.733936720E0
1.965398928E0,-7.568282485E-1,9.276522398E-1,1.204427958E0,1.698226834E0
1.967843094E0,-7.024613023E-1,9.465890527E-1,1.212980032E0,1.691390929E0
1.970287990E0,-6.615333557E-1,9.850735664E-1,1.232527733E0,1.710883083E0
1.972733772E0,-6.328226924E-1,1.033331871E0,1.255129695E0,1.744588739E0
1.975178719E0,-6.077772379E-1,1.078535795E0,1.278342605E0,1.779548383E0
1.977622834E0,-5.857861042E-1,1.099916101E0,1.296668530E0,1.798418768E0
1.980067782E0,-5.680710673E-1,1.098083496E0,1.308885813E0,1.800464988E0
1.982513511E0,-5.509667993E-1,1.069372892E0,1.310718417E0,1.779074356E0
1.984958459E0,-5.289757252E-1,1.014394999E0,1.298501134E0,1.730583059E0
1.987402626E0,-5.057628155E-1,9.325391650E-1,1.272844791E0,1.656972897E0
1.989847574E0,-4.807173908E-1,8.341899514E-1,1.233749509E0,1.564960043E0
1.992293303E0,-4.593371153E-1,7.297320366E-1,1.183047652E0,1.463933461E0
1.994738251E0,-4.428437650E-1,6.313828230E-1,1.120128632E0,1.359942286E0
1.997182417E0,-4.336808026E-1,5.476943851E-1,1.049268365E0,1.260560304E0
1.999627365E0,-4.336808026E-1,4.780557454E-1,9.698560238E-1,1.165005168E0
2.002073094E0,-4.367351234E-1,4.120823741E-1,8.818915486E-1,1.066903067E0
2.004518042E0,-4.428437650E-1,3.546611071E-1,7.847640514E-1,9.683747815E-1
2.006962157E0,-4.501741529E-1,3.015158772E-1,6.796953082E-1,8.692262675E-1
2.009407105E0,-4.550610781E-1,2.422619909E-1,5.666853189E-1,7.660964089E-1
2.011852834E0,-4.538393319E-1,1.744560152E-1,4.457340837E-1,6.596089097E-1
2.014297782E0,-4.465089738E-1,1.017631143E-1,3.211176693E-1,5.593232989E-1
2.016741949E0,-4.330699444E-1,3.029194660E-2,1.934469640E-1,4.752777153E-1
2.019186897E0,-4.135222733E-1,-3.751403838E-2,7.005228102E-2,4.210882279E-1
2.021632626E0,-3.884768188E-1,-9.493531287E-2,-4.173595831E-2,4.020806419E-1
2.024077574E0,-3.579335809E-1,-1.401393116E-1,-1.419177651E-1,4.097512990E-1
2.026521740E0,-3.206708431E-1,-1.719042808E-1,-2.268279642E-1,4.287561040E-1
2.028966688E0,-2.785211504E-1,-1.883976310E-1,-2.940230966E-1,4.466735720E-1
2.031412417E0,-2.327062935E-1,-1.890084893E-1,-3.477791846E-1,4.591587844E-1
2.033857365E0,-1.850588471E-1,-1.786237955E-1,-3.911505938E-1,4.681367580E-1
2.036301480E0,-1.368005276E-1,-1.548000574E-1,-4.278024733E-1,4.750709403E-1
2.038746428E0,-8.732049912E-2,-1.285328716E-1,-4.607891738E-1,4.862841056E-1
2.041192209E0,-3.661872447E-2,-1.034874320E-1,-4.956084788E-1,5.076202752E-1
2.043637157E0,1.652650535E-2,-8.332888782E-2,-5.298168659E-1,5.365843273E-1
2.046081272E0,6.906086951E-2,-6.805726886E-2,-5.658578873E-1,5.741048198E-1
2.048526219E0,1.246495619E-1,-5.706170946E-2,-6.037314534E-1,6.191003310E-1
2.050971949E0,1.790165305E-1,-5.278565735E-2,-6.403833628E-1,6.670263077E-1
2.053416897E0,2.291074395E-1,-3.934663162E-2,-6.788678169E-1,7.175652508E-1
2.055861063E0,2.724788189E-1,-1.491204090E-2,-7.173523307E-1,7.675033824E-1
2.058306011E0,3.085198402E-1,2.051811107E-2,-7.546150684E-1,8.155056016E-1
2.060751740E0,3.378413320E-1,6.266777217E-2,-7.943212986E-1,8.654538351E-1
2.063196688E0,3.641085327E-1,9.931965172E-2,-8.346383572E-1,9.160025131E-1
2.065640855E0,3.934300244E-1,1.188673228E-1,-8.731228113E-1,9.650181699E-1
2.068085751E0,4.282493293E-1,1.170347333E-1,-9.079421163E-1,1.010669829E0
2.070531532E0,4.710098505E-1,9.687620401E-2,-9.366527796E-1,1.052878772E0
2.072976480E0,5.107160807E-1,7.060901821E-2,-9.519243836E-1,1.082578672E0
2.075420594E0,5.467571020E-1,4.495269805E-2,-9.543678164E-1,1.100809703E0
2.077865542E0,5.766894221E-1,3.029194660E-2,-9.464265704E-1,1.108698131E0
2.080311324E0,5.962371230E-1,2.540502883E-2,-9.287115335E-1,1.103924470E0
2.082756219E0,6.115087271E-1,2.357243560E-2,-9.061095119E-1,1.093404331E0
2.085200386E0,6.267803311E-1,2.051811107E-2,-8.773988485E-1,1.078472677E0
2.087645334E0,6.432737112E-1,8.911682293E-3,-8.462447524E-1,1.063019598E0
2.090091063E0,6.646539569E-1,-1.063598879E-2,-8.169232607E-1,1.053205403E0
2.092536011E0,6.866450906E-1,-3.690317273E-2,-7.845474482E-1,1.043243990E0
2.094980178E0,7.086362243E-1,-6.805726886E-2,-7.552259564E-1,1.037864796E0
2.097425126E0,7.287947536E-1,-9.432445467E-2,-7.283478975E-1,1.034663982E0
2.099870855E0,7.434555292E-1,-1.187590361E-1,-7.045241594E-1,1.031108202E0
2.102315803E0,7.513967752E-1,-1.383067071E-1,-6.849764585E-1,1.026118223E0
2.104759917E0,7.495641708E-1,-1.468588263E-1,-6.733700633E-1,1.018253997E0
2.107204865E0,7.330707908E-1,-1.444153637E-1,-6.715374589E-1,1.004595013E0
2.109650647E0,7.031384706E-1,-1.383067071E-1,-6.770352721E-1,9.858545602E-1
2.112095594E0,6.725952029E-1,-1.499131471E-1,-6.910851598E-1,9.759390128E-1
2.114539709E0,6.481606364E-1,-1.945062727E-1,-7.063567638E-1,9.782048755E-1
2.116984657E0,6.310564280E-1,-2.690317631E-1,-7.197957635E-1,9.943421172E-1
2.119430386E0,6.176173687E-1,-3.624940813E-1,-7.240718603E-1,1.018397384E0
2.121875334E0,6.054000854E-1,-4.596215785E-1,-7.173523307E-1,1.045158182E0
2.124319501E0,5.925719142E-1,-5.555273294E-1,-6.959720254E-1,1.069639728E0
2.126764449E0,5.748568773E-1,-6.453244090E-1,-6.642071009E-1,1.089988576E0
2.129210178E0,5.528657436E-1,-7.284020185E-1,-6.287769079E-1,1.109770441E0
2.131655126E0,5.278202891E-1,-8.041492701E-1,-5.933467746E-1,1.130181712E0
2.134099292E0,4.972770214E-1,-8.731769323E-1,-5.597492456E-1,1.150235458E0
2.136544240E0,4.612360001E-1,-9.409829378E-1,-5.359255075E-1,1.177031727E0
2.138989969E0,4.239732623E-1,-1.010621548E0,-5.206539035E-1,1.213338257E0
2.141434917E0,3.854887784E-1,-1.088812232E0,-5.182104111E-1,1.265960388E0
2.143879032E0,3.476151824E-1,-1.178609371E0,-5.237082243E-1,1.335749478E0
2.146323980E0,3.134067655E-1,-1.270238996E0,-5.347037911E-1,1.413378594E0
2.148769709E0,2.828635275E-1,-1.368588209E0,-5.481427908E-1,1.501168205E0
2.151214657E0,2.553746104E-1,-1.465104818E0,-5.585274696E-1,1.588616145E0
2.153658824E0,2.364378124E-1,-1.556123734E0,-5.609709620E-1,1.670961500E0
2.156103772E0,2.229987830E-1,-1.634314418E0,-5.518079996E-1,1.739311399E0
2.158549501E0,2.138358206E-1,-1.691735744E0,-5.334820151E-1,1.786700492E0
2.160994449E0,2.058945745E-1,-1.722278953E0,-5.029388070E-1,1.805985828E0
2.163438615E0,2.028402537E-1,-1.730220199E0,-4.632326365E-1,1.802606607E0
2.165883563E0,2.046728432E-1,-1.719224572E0,-4.168069065E-1,1.780829048E0
2.168329292E0,2.120032161E-1,-1.694790006E0,-3.661051393E-1,1.746794636E0
2.170774240E0,2.223879248E-1,-1.655694723E0,-3.147924840E-1,1.699963445E0
2.173218355E0,2.401030064E-1,-1.610490680E0,-2.634798586E-1,1.649470012E0
2.175663303E0,2.596506476E-1,-1.557956338E0,-2.176649868E-1,1.594372747E0
2.178109032E0,2.822526395E-1,-1.502367616E0,-1.749044657E-1,1.538624898E0
2.180554032E0,3.036329150E-1,-1.442502856E0,-1.400851756E-1,1.480753624E0
2.182998147E0,3.237914443E-1,-1.382027268E0,-1.174831837E-1,1.424304240E0
2.185443094E0,3.421173990E-1,-1.326438546E0,-1.070984900E-1,1.374028245E0
2.187888824E0,3.622759283E-1,-1.285510659E0,-1.089310795E-1,1.340017718E0
2.190333772E0,3.830453157E-1,-1.258021712E0,-1.217592359E-1,1.320669396E0
2.192777938E0,3.989278078E-1,-1.240917563E0,-1.406960338E-1,1.311035914E0
2.195222886E0,4.111451209E-1,-1.226256728E0,-1.626871675E-1,1.303538641E0
2.197668615E0,4.184754789E-1,-1.210374236E0,-1.865108907E-1,1.294184620E0
2.200113563E0,4.148102999E-1,-1.188383102E0,-2.085020244E-1,1.275850727E0
2.202557730E0,4.068690538E-1,-1.160894275E0,-2.268279642E-1,1.250867247E0
2.205002678E0,3.891539872E-1,-1.124853253E0,-2.494299561E-1,1.216121281E0
2.207448407E0,3.793801367E-1,-1.091255665E0,-2.665341794E-1,1.185668032E0
2.209893355E0,3.677737117E-1,-1.078427553E0,-2.830275297E-1,1.174039213E0
2.212337469E0,3.604433239E-1,-1.080260158E0,-2.964665592E-1,1.176764130E0
2.214782417E0,3.604433239E-1,-1.091866493E0,-3.056295216E-1,1.189748391E0
2.217228147E0,3.488368988E-1,-1.120577216E0,-3.080729842E-1,1.213379348E0
2.219673094E0,3.476151824E-1,-1.142568350E0,-3.050186634E-1,1.232613132E0
2.222117261E0,3.219588697E-1,-1.167613745E0,-2.976882756E-1,1.247236016E0
2.224562209E0,3.066872358E-1,-1.172500730E0,-2.830275297E-1,1.244555987E0
2.227007938E0,2.663701773E-1,-1.178609371E0,-2.677559257E-1,1.237645489E0
2.229452886E0,2.364378124E-1,-1.167613745E0,-2.530951500E-1,1.217900592E0
2.231897053E0,1.967316121E-1,-1.165170312E0,-2.402669936E-1,1.205841371E0
2.234342001E0,1.606905907E-1,-1.156007290E0,-2.317148745E-1,1.189901720E0
2.236787730E0,1.332016736E-1,-1.141957402E0,-2.280496955E-1,1.172098997E0
2.239232678E0,9.532805532E-2,-1.127296686E0,-2.304931432E-1,1.154561538E0
2.241676792E0,7.761297375E-2,-1.100418687E0,-2.366017997E-1,1.128239989E0
2.244121740E0,4.645887762E-2,-1.075984001E0,-2.475973815E-1,1.105081201E0
2.246567522E0,4.035022855E-2,-1.027114868E0,-2.592038214E-1,1.060084768E0
2.249012417E0,1.591563970E-2,-9.739696383E-1,-2.720319629E-1,1.011371125E0
2.251456584E0,1.102872286E-2,-8.890594244E-1,-2.842492759E-1,9.334591280E-1
2.253901532E0,3.087481484E-3,-7.974297404E-1,-2.946339548E-1,8.501252206E-1
2.256347261E0,3.698346205E-3,-6.893066764E-1,-3.007425964E-1,7.520661415E-1
2.258792209E0,1.713737100E-2,-5.714097619E-1,-3.007425964E-1,6.459480744E-1
2.261236376E0,2.568947524E-2,-4.455716908E-1,-2.934122384E-1,5.341206066E-1
2.263681324E0,5.989789963E-2,-3.069053888E-1,-2.744754255E-1,4.160714305E-1
2.266127053E0,8.188903332E-2,-1.676282287E-1,-2.500408292E-1,3.119702760E-1
2.268572001E0,1.258713007E-1,-2.083883155E-3,-2.115563452E-1,2.461788255E-1
2.271016167E0,1.496950239E-1,1.671256423E-1,-1.651306301E-1,2.785815958E-1
2.273461063E0,1.900120974E-1,3.577154279E-1,-1.077093482E-1,4.191255518E-1
2.275906844E0,2.144466788E-1,5.458617806E-1,-4.234682396E-2,5.880014584E-1
2.278351792E0,2.437681854E-1,7.321755290E-1,2.912434749E-2,7.722384095E-1
2.280795907E0,2.791983187E-1,8.910003304E-1,1.109802127E-1,9.402924533E-1
2.283240855E0,3.072980940E-1,1.016227603E0,1.928361058E-1,1.079044218E0
2.285686584E0,3.488368988E-1,1.126183271E0,2.801897526E-1,1.211809490E0
2.288131532E0,3.543346822E-1,1.217813015E0,3.675433993E-1,1.320496027E0
2.290575699E0,3.622759283E-1,1.319827437E0,4.567296505E-1,1.442841047E0
2.293020647E0,3.280675113E-1,1.405348420E0,5.422507524E-1,1.541644691E0
2.295466376E0,2.969134152E-1,1.487815142E0,6.265500784E-1,1.641437319E0
2.297911324E0,2.462116480E-1,1.536684394E0,7.065733671E-1,1.709170859E0
2.300355490E0,1.887903661E-1,1.564784169E0,7.817097306E-1,1.759335500E0
2.302800386E0,1.344234049E-1,1.570281982E0,8.525699973E-1,1.791851209E0
2.305246167E0,6.111963093E-2,1.542793036E0,9.142673612E-1,1.794388689E0
2.307691115E0,-1.799436286E-3,1.496367335E0,9.722995162E-1,1.784512479E0
2.310135230E0,-7.082714885E-2,1.421841741E0,1.024222851E0,1.753762489E0
2.312580178E0,-1.435200423E-1,1.333877325E0,1.071870327E0,1.717187444E0
2.315025907E0,-2.210998684E-1,1.239193201E0,1.114019990E0,1.680929945E0
2.317470855E0,-3.053992093E-1,1.145730972E0,1.150061011E0,1.651850014E0
2.319915022E0,-3.915311396E-1,1.055323005E0,1.179382563E0,1.630320983E0
2.322359969E0,-4.764413238E-1,9.624715447E-1,1.206871390E0,1.615514272E0
2.324805699E0,-5.540211797E-1,8.677874804E-1,1.225197434E0,1.600344754E0
2.327250647E0,-6.279357672E-1,7.749360800E-1,1.239858150E0,1.591250291E0
2.329694813E0,-6.981852055E-1,6.906367540E-1,1.251464605E0,1.590787656E0
2.332139761E0,-7.611042857E-1,6.112242937E-1,1.258184075E0,1.592451581E0
2.334585490E0,-8.160821199E-1,5.403640270E-1,1.258794904E0,1.594536898E0
2.337030438E0,-8.661730289E-1,4.817209542E-1,1.253908038E0,1.598310408E0
2.339474553E0,-9.144313335E-1,4.420147538E-1,1.245355964E0,1.607007524E0
2.341919501E0,-9.565809965E-1,4.200236201E-1,1.228862524E0,1.612938358E0
2.344365282E0,-9.981198311E-1,4.169692993E-1,1.208093166E0,1.621602816E0
2.346810178E0,-1.032939076E0,4.267431200E-1,1.183047652E0,1.627474907E0
2.349254344E0,-1.057373643E0,4.499559999E-1,1.154947877E0,1.629234182E0
2.351699292E0,-1.070812702E0,4.786666334E-1,1.124404669E0,1.624822282E0
2.354145022E0,-1.069590926E0,5.043230057E-1,1.096915841E0,1.612944762E0
2.356589969E0,-1.053708434E0,5.214272141E-1,1.071259499E0,1.590529697E0
2.359034136E0,-1.021943569E0,5.336444974E-1,1.049879193E0,1.559291964E0
2.361479084E0,-9.804047346E-1,5.415857434E-1,1.032775044E0,1.523526453E0
2.363924813E0,-9.352007508E-1,5.605225563E-1,1.021168590E0,1.493844459E0
2.366369761E0,-8.924401999E-1,5.874006152E-1,1.019335985E0,1.476663416E0
2.368813928E0,-8.484579325E-1,6.148895025E-1,1.019335985E0,1.461853554E0
2.371258824E0,-7.971453071E-1,6.301611066E-1,1.027888060E0,1.445371068E0
2.373704605E0,-7.476652861E-1,6.387132406E-1,1.037661910E0,1.429580436E0
2.376149553E0,-7.061264515E-1,6.521522403E-1,1.051711798E0,1.424785884E0
2.378593667E0,-6.688637137E-1,6.613152027E-1,1.066372514E0,1.421923628E0
2.381038615E0,-6.267140508E-1,6.484870315E-1,1.076146364E0,1.404064432E0
2.383484344E0,-5.827317834E-1,6.246633530E-1,1.077978969E0,1.375434220E0
2.385929292E0,-5.399712920E-1,5.947309732E-1,1.071259499E0,1.338981270E0
2.388373459E0,-4.972107410E-1,5.629659891E-1,1.050490022E0,1.291386275E0
2.390818407E0,-4.562827945E-1,5.373097062E-1,1.019335985E0,1.239331094E0
2.393264136E0,-4.220743775E-1,5.312010050E-1,9.735212326E-1,1.186619096E0
2.395709084E0,-3.896985352E-1,5.415857434E-1,9.148781896E-1,1.132334830E0
2.398153251E0,-3.561009765E-1,5.660203099E-1,8.489048481E-1,1.080660140E0
2.400598199E0,-3.182273805E-1,6.032830477E-1,7.701032758E-1,1.028726473E0
2.403043928E0,-2.766885757E-1,6.490979195E-1,6.876365542E-1,9.852556560E-1
2.405488876E0,-2.296519727E-1,7.059083581E-1,6.002829075E-1,9.546654951E-1
2.407932990E0,-1.758958697E-1,7.755469084E-1,5.129292011E-1,9.463132301E-1
2.410377938E0,-1.221397892E-1,8.610680103E-1,4.292407334E-1,9.698473353E-1
2.412823667E0,-6.838369370E-2,9.581954479E-1,3.467739820E-1,1.021306536E0
2.415268615E0,-9.129812941E-3,1.060820699E0,2.704159021E-1,1.094782475E0
2.417712782E0,5.317838863E-2,1.159169912E0,1.958904266E-1,1.176807497E0
2.420157730E0,1.148757264E-1,1.256297469E0,1.262518317E-1,1.267840403E0
2.422603459E0,1.735187471E-1,1.344872832E0,6.088931486E-2,1.357386901E0
2.425048407E0,2.242205143E-1,1.427950501E0,3.468028735E-3,1.445451314E0
2.427492574E0,2.688136399E-1,1.490258694E0,-5.028806627E-2,1.515143768E0
2.429937522E0,3.042437732E-1,1.530575752E0,-9.854638577E-2,1.563629687E0
2.432383251E0,3.378413320E-1,1.539127827E0,-1.413069069E-1,1.582093194E0
2.434828199E0,3.653302491E-1,1.511638880E0,-1.791805178E-1,1.565446886E0
2.437272365E0,3.836562037E-1,1.458493710E0,-2.115563452E-1,1.522876249E0
2.439717261E0,3.915974498E-1,1.385800719E0,-2.402669936E-1,1.459972748E0
2.442163042E0,3.873213828E-1,1.297836304E0,-2.671450377E-1,1.380493896E0
2.444607990E0,3.738823533E-1,1.189713240E0,-2.915796340E-1,1.280712415E0
2.447052105E0,3.543346822E-1,1.061431646E0,-3.209011555E-1,1.164116729E0
2.449497053E0,3.305109739E-1,9.178783894E-1,-3.526661098E-1,1.037358003E0
2.451942782E0,3.011894524E-1,7.645513415E-1,-3.862636685E-1,9.079941970E-1
2.454387730E0,2.749222815E-1,6.032830477E-1,-4.235264063E-1,7.867066247E-1
2.456831897E0,2.510985434E-1,4.304083288E-1,-4.632326365E-1,6.803574674E-1
2.459276844E0,2.333834916E-1,2.618096471E-1,-5.053822398E-1,6.151612421E-1
2.461722574E0,2.156684101E-1,1.109260917E-1,-5.444775820E-1,5.960480670E-1
2.464167522E0,1.967316121E-1,-1.307944767E-2,-5.847947001E-1,6.171379428E-1
2.466611688E0,1.777947992E-1,-1.089852005E-1,-6.245008707E-1,6.583996522E-1
2.469056636E0,1.625231802E-1,-1.792346537E-1,-6.635962129E-1,7.063276711E-1
2.471502365E0,1.527493447E-1,-2.256603688E-1,-7.014698386E-1,7.525389683E-1
2.473947313E0,1.539710760E-1,-2.604796588E-1,-7.405651808E-1,7.999959574E-1
2.476391428E0,1.655775011E-1,-2.849142551E-1,-7.778279185E-1,8.447534034E-1
2.478836376E0,1.875686347E-1,-3.001858890E-1,-8.138689399E-1,8.875112461E-1
2.481282105E0,2.168901414E-1,-3.117923141E-1,-8.456339240E-1,9.270126827E-1
2.483727053E0,2.535420060E-1,-3.148466349E-1,-8.761771321E-1,9.649343600E-1
2.486171219E0,2.926373482E-1,-3.130140305E-1,-9.018334746E-1,9.984578192E-1
2.488616167E0,3.292892277E-1,-3.026293516E-1,-9.250463247E-1,1.027485583E0
2.491061897E0,3.641085327E-1,-2.781947553E-1,-9.433722496E-1,1.048770016E0
2.493506844E0,3.970952332E-1,-2.452080399E-1,-9.623090625E-1,1.069509392E0
2.495951011E0,4.233624041E-1,-2.079453021E-1,-9.775806665E-1,1.085422007E0
2.498395959E0,4.484078586E-1,-1.737368703E-1,-9.946848750E-1,1.104831258E0
2.500841688E0,4.710098505E-1,-1.468588263E-1,-1.014232635E0,1.127867737E0
2.503286636E0,4.917792380E-1,-1.297546029E-1,-1.037445545E0,1.155411760E0
2.505730751E0,5.082725883E-1,-1.181481779E-1,-1.063101888E0,1.184265865E0
2.508175699E0,5.149921179E-1,-1.016548276E-1,-1.092423320E0,1.211998059E0
2.510621480E0,5.137704015E-1,-9.188099205E-2,-1.121744871E0,1.237220149E0
2.513066376E0,5.119377971E-1,-9.432445467E-2,-1.149844646E0,1.262188624E0
2.515510542E0,5.143812299E-1,-1.114286631E-1,-1.170003176E0,1.282930952E0
2.517955490E0,5.174355507E-1,-1.425827742E-1,-1.181609631E0,1.297794558E0
2.520401219E0,5.241550803E-1,-1.725151390E-1,-1.180998802E0,1.303555980E0
2.522846167E0,5.290420055E-1,-1.969497353E-1,-1.168170571E0,1.297419410E0
2.525290334E0,5.320963264E-1,-2.183299959E-1,-1.146179438E0,1.282389095E0
2.527735282E0,5.363723636E-1,-2.372668087E-1,-1.119912267E0,1.264197111E0
2.530181011E0,5.388158560E-1,-2.598688006E-1,-1.088758230E0,1.242275655E0
2.532625959E0,5.430918932E-1,-2.910229266E-1,-1.060047507E0,1.226109239E0
2.535070126E0,5.461462140E-1,-3.313399851E-1,-1.030726075E0,1.212624474E0
2.537515022E0,5.461462140E-1,-3.783765733E-1,-1.006291509E0,1.205847054E0
2.539960803E0,5.400375724E-1,-4.296891987E-1,-9.836893082E-1,1.201631409E0
2.542405751E0,5.302637219E-1,-4.810018539E-1,-9.653633833E-1,1.201860583E0
2.544849865E0,5.149921179E-1,-5.384231210E-1,-9.513134956E-1,1.208351648E0
2.547294813E0,4.972770214E-1,-6.031747460E-1,-9.390962124E-1,1.221886208E0
2.549740542E0,4.820054173E-1,-6.752567887E-1,-9.268789291E-1,1.243947548E0
2.552185490E0,4.691772461E-1,-7.510040402E-1,-9.183267951E-1,1.275718801E0
2.554629657E0,4.587925673E-1,-8.310272694E-1,-9.097747207E-1,1.314833444E0
2.557074605E0,4.508513212E-1,-9.073854089E-1,-9.012225866E-1,1.356029994E0
2.559520334E0,4.447426796E-1,-9.758022428E-1,-8.920596242E-1,1.394903739E0
2.561965282E0,4.319145083E-1,-1.025282264E0,-8.810640574E-1,1.419164450E0
2.564409449E0,4.148102999E-1,-1.052160382E0,-8.694576621E-1,1.426557283E0
2.566854397E0,3.934300244E-1,-1.066210270E0,-8.602946401E-1,1.425376579E0
2.569300126E0,3.726606369E-1,-1.077205777E0,-8.517425656E-1,1.422924325E0
2.571745074E0,3.598324656E-1,-1.096753478E0,-8.438013196E-1,1.429807072E0
2.574189188E0,3.543346822E-1,-1.130961895E0,-8.340274692E-1,1.449216924E0
2.576634136E0,3.561672866E-1,-1.171889782E0,-8.211992979E-1,1.474635238E0
2.579079865E0,3.592216074E-1,-1.210985184E0,-8.028733730E-1,1.496706695E0
2.581524813E0,3.634976745E-1,-1.239084959E0,-7.814931273E-1,1.509368611E0
2.583968980E0,3.647193909E-1,-1.259854317E0,-7.570585012E-1,1.514394502E0
2.586413928E0,3.647193909E-1,-1.264130354E0,-7.326239347E-1,1.505916205E0
2.588859657E0,3.573890030E-1,-1.250691414E0,-7.118545175E-1,1.482798964E0
2.591304605E0,3.488368988E-1,-1.228700280E0,-6.965829134E-1,1.454860583E0
2.593748772E0,3.427282572E-1,-1.213428617E0,-6.837547421E-1,1.434361256E0
2.596193719E0,3.402847946E-1,-1.209763408E0,-6.703157425E-1,1.424304897E0
2.598639449E0,3.421173990E-1,-1.216482878E0,-6.568766832E-1,1.424205703E0
2.601084397E0,3.408956528E-1,-1.226256728E0,-6.391616464E-1,1.424234187E0
2.603528563E0,3.323435485E-1,-1.234197974E0,-6.220574379E-1,1.421496511E0
2.605973459E0,3.109633029E-1,-1.237863183E0,-6.031206250E-1,1.411650780E0
2.608419240E0,2.853069901E-1,-1.247026205E0,-5.860164165E-1,1.407085525E0
2.610864188E0,2.639267147E-1,-1.275736809E0,-5.713556409E-1,1.422536110E0
2.613308303E0,2.456007898E-1,-1.323995113E0,-5.591383576E-1,1.458052986E0
2.615753251E0,2.248313874E-1,-1.381416440E0,-5.487536788E-1,1.503326689E0
2.618198980E0,1.979533285E-1,-1.431507349E0,-5.402015448E-1,1.542795035E0
2.620643928E0,1.643557698E-1,-1.469991803E0,-5.298168659E-1,1.571176194E0
2.623088094E0,1.215952411E-1,-1.498091578E0,-5.200430155E-1,1.590442869E0
2.625533042E0,8.127816767E-2,-1.520082712E0,-5.059931278E-1,1.604146701E0
2.627978772E0,4.523714632E-2,-1.536576033E0,-4.888889492E-1,1.613110259E0
2.630423719E0,1.469391119E-2,-1.544517279E0,-4.705629945E-1,1.614676149E0
2.632867886E0,-8.518948220E-3,-1.545128107E0,-4.491827488E-1,1.609117330E0
2.635312834E0,-2.562316135E-2,-1.532910824E0,-4.302459359E-1,1.592351627E0
2.637758563E0,-3.600785881E-2,-1.501145840E0,-4.137525856E-1,1.557538635E0
2.640203511E0,-4.211650789E-2,-1.446168065E0,-3.978700936E-1,1.500492081E0
2.642647626E0,-4.578169435E-2,-1.369809985E0,-3.825984895E-1,1.422974688E0
2.645092574E0,-4.883601889E-2,-1.268406391E0,-3.722137809E-1,1.322793570E0
2.647538303E0,-4.944688454E-2,-1.148066044E0,-3.636616766E-1,1.205300979E0
2.649983251E0,-4.944688454E-2,-1.017951965E0,-3.575530350E-1,1.080053411E0
2.652427417E0,-4.150564224E-2,-8.866159916E-1,-3.538878262E-1,9.555350482E-1
2.654872365E0,-2.684488893E-2,-7.595561147E-1,-3.557204306E-1,8.391562215E-1
2.657318094E0,-4.242895171E-3,-6.441026926E-1,-3.593856096E-1,7.375935854E-1
2.659763042E0,2.324601635E-2,-5.359796286E-1,-3.636616766E-1,6.481237186E-1
2.662207209E0,5.440011621E-2,-4.235805571E-1,-3.648833930E-1,5.617114486E-1
2.664652157E0,8.066730201E-2,-2.983532846E-1,-3.648833930E-1,4.781859331E-1
2.667097886E0,1.008258387E-1,-1.578543931E-1,-3.599964976E-1,4.058094842E-1
2.669542834E0,1.167083159E-1,-4.527342040E-3,-3.538878262E-1,3.726632815E-1
2.671986949E0,1.332016736E-1,1.573518068E-1,-3.441140056E-1,4.011442705E-1
2.674431897E0,1.545819342E-1,3.192309439E-1,-3.245663345E-1,4.807777817E-1
2.676877678E0,1.863469034E-1,4.762232006E-1,-2.940230966E-1,5.898841297E-1
2.679322574E0,2.223879248E-1,6.332154274E-1,-2.482082397E-1,7.155595690E-1
2.681766740E0,2.614832520E-1,7.969272137E-1,-1.889543533E-1,8.597500931E-1
2.684211688E0,3.011894524E-1,9.691910744E-1,-1.174831837E-1,1.021689152E0
2.686657417E0,3.390630782E-1,1.153672218E0,-3.440558165E-2,1.202957648E0
2.689102365E0,3.744932115E-1,1.337542415E0,5.905672163E-2,1.390234719E0
2.691546532E0,4.080907702E-1,1.508584619E0,1.586276740E-1,1.570836837E0
2.693991480E0,4.392448962E-1,1.661300778E0,2.618637979E-1,1.738225821E0
2.696437209E0,4.624577463E-1,1.797523618E0,3.663216531E-1,1.891864128E0
2.698882157E0,4.746750295E-1,1.919696569E0,4.701686800E-1,2.032636192E0
2.701326272E0,4.722315669E-1,2.025376081E0,5.691288114E-1,2.156167556E0
2.703771219E0,4.532947838E-1,2.114562273E0,6.632019281E-1,2.262009409E0
2.706217001E0,4.215297997E-1,2.178703070E0,7.523881793E-1,2.343186380E0
2.708661949E0,3.769366741E-1,2.217187643E0,8.372983932E-1,2.399806430E0
2.711106063E0,3.195154071E-1,2.226350546E0,9.142673612E-1,2.427882134E0
2.713551011E0,2.535420060E-1,2.202526808E0,9.863494039E-1,2.426580523E0
2.715996740E0,1.802382618E-1,2.148770809E0,1.049879193E0,2.398321943E0
2.718441688E0,9.288459271E-2,2.072412729E0,1.106078744E0,2.350942844E0
2.720885855E0,-4.242895171E-3,1.979561329E0,1.153726220E0,2.291236620E0
2.723330803E0,-1.099224910E-1,1.868383884E0,1.189767241E0,2.217766305E0
2.725776532E0,-2.186564058E-1,1.735215425E0,1.219699621E0,2.132240691E0
2.728221480E0,-3.322772682E-1,1.590440512E0,1.241690755E0,2.044921792E0
2.730665647E0,-4.501741529E-1,1.442000389E0,1.253908038E0,1.963238971E0
2.733110594E0,-5.674601793E-1,1.291727662E0,1.260627508E0,1.892023552E0
2.735556324E0,-6.810809970E-1,1.140843987E0,1.260016680E0,1.831130351E0
2.738001272E0,-7.898149490E-1,9.954582453E-1,1.255129695E0,1.786083795E0
2.740445386E0,-8.875532746E-1,8.574028015E-1,1.247799397E0,1.754962596E0
2.742890334E0,-9.712417722E-1,7.266777158E-1,1.239247322E0,1.734100634E0
2.745336063E0,-1.040880322E0,6.002287269E-1,1.230695128E0,1.719975834E0
2.747781011E0,-1.094025612E0,4.762232006E-1,1.222143054E0,1.708014702E0
2.750225178E0,-1.132510066E0,3.583262861E-1,1.214812636E0,1.699042824E0
2.752670126E0,-1.161831498E0,2.563118637E-1,1.209314942E0,1.696464215E0
2.755115855E0,-1.186877012E0,1.732342839E-1,1.201373696E0,1.697641281E0
2.757560803E0,-1.214365959E0,1.109260917E-1,1.191599846E0,1.704963188E0
2.760004969E0,-1.245519996E0,7.366333902E-2,1.179993391E0,1.717303337E0
2.762449917E0,-1.280339360E0,6.327864528E-2,1.159224033E0,1.728315198E0
2.764895647E0,-1.316380382E0,6.816555560E-2,1.132956862E0,1.738129772E0
2.767340594E0,-1.348145247E0,7.977199554E-2,1.103024483E0,1.743709318E0
2.769784709E0,-1.370747328E0,9.626533091E-2,1.067594290E0,1.740107128E0
2.772229657E0,-1.381132007E0,1.048174351E-1,1.031553268E0,1.727024742E0
2.774675438E0,-1.369525552E0,9.993052483E-2,9.973449707E-1,1.697139752E0
2.777120386E0,-1.342036605E0,8.649151027E-2,9.674125910E-1,1.656632171E0
2.779564501E0,-1.302330494E0,7.732853293E-2,9.429779649E-1,1.609736581E0
2.782009449E0,-1.252239585E0,7.488507032E-2,9.258737564E-1,1.559151681E0
2.784455178E0,-1.196039915E0,8.221544325E-2,9.191542864E-1,1.510667223E0
2.786900126E0,-1.139840364E0,1.035957187E-1,9.240412116E-1,1.470992961E0
2.789344292E0,-1.082419157E0,1.353606731E-1,9.356476068E-1,1.437146544E0
2.791789240E0,-1.028052211E0,1.775103360E-1,9.570279121E-1,1.415734330E0
2.794234969E0,-9.736852050E-1,2.269903868E-1,9.826841950E-1,1.401875794E0
2.796679917E0,-9.205399752E-1,2.770812809E-1,1.009562135E0,1.394052935E0
2.799124084E0,-8.625078201E-1,3.076245189E-1,1.034607530E0,1.381653113E0
2.801568980E0,-7.928692698E-1,3.082353771E-1,1.052322626E0,1.353156915E0
2.804014761E0,-7.183437347E-1,2.868551016E-1,1.059042215E0,1.311439661E0
2.806459709E0,-6.456508636E-1,2.563118637E-1,1.051711798E0,1.260419975E0
2.808903824E0,-5.766231418E-1,2.282121032E-1,1.028498888E0,1.200993328E0
2.811348772E0,-5.204235911E-1,2.184382826E-1,9.906254411E-1,1.140129274E0
2.813794501E0,-4.782739282E-1,2.318773121E-1,9.350367785E-1,1.075549541E0
2.816239449E0,-4.422329068E-1,2.618096471E-1,8.623438478E-1,1.003868092E0
2.818683615E0,-4.110788107E-1,3.021267354E-1,7.694923878E-1,9.232469267E-1
2.821128563E0,-3.793138266E-1,3.473307192E-1,6.619802117E-1,8.382931518E-1
2.823574292E0,-3.414402306E-1,3.955890238E-1,5.391964316E-1,7.508694286E-1
2.826019240E0,-2.986797094E-1,4.420147538E-1,4.090822041E-1,6.722610067E-1
2.828463407E0,-2.485887855E-1,4.927165210E-1,2.753028274E-1,6.167313849E-1
2.830908355E0,-1.923892200E-1,5.489161015E-1,1.415234655E-1,5.986245816E-1
2.833354084E0,-1.349679381E-1,6.124460697E-1,1.568532176E-2,6.273376778E-1
2.835799032E0,-7.021628320E-2,6.796411872E-1,-9.915724397E-2,6.904162721E-1
2.838243147E0,-6.075489335E-3,7.480580211E-1,-2.005607784E-1,7.745013494E-1
2.840688094E0,5.867617205E-2,8.176965714E-1,-2.873035967E-1,8.686851747E-1
2.843133824E0,1.179300472E-1,8.861134052E-1,-3.587747514E-1,9.632361005E-1
2.845578772E0,1.698535532E-1,9.551411271E-1,-4.168069065E-1,1.055875371E0
2.848022938E0,2.144466788E-1,1.017449379E0,-4.668978155E-1,1.139817611E0
2.850467886E0,2.510985434E-1,1.059599042E0,-5.072148442E-1,1.201277448E0
2.852913615E0,2.840852439E-1,1.076092362E0,-5.438667536E-1,1.238737359E0
2.855358563E0,3.134067655E-1,1.065707684E0,-5.799077749E-1,1.253096044E0
2.857802730E0,3.408956528E-1,1.026612282E0,-6.141161919E-1,1.243897633E0
2.860247678E0,3.647193909E-1,9.643040895E-1,-6.507680416E-1,1.219180731E0
2.862693407E0,3.793801367E-1,8.873351812E-1,-6.880308390E-1,1.185191734E0
2.865138355E0,3.867105246E-1,8.005923629E-1,-7.252935767E-1,1.147407484E0
2.867582469E0,3.854887784E-1,7.114061117E-1,-7.607237101E-1,1.110585799E0
2.870027417E0,3.775475621E-1,6.252741814E-1,-7.943212986E-1,1.079099759E0
2.872473147E0,3.634976745E-1,5.397531390E-1,-8.279188275E-1,1.053049664E0
2.874918147E0,3.433391154E-1,4.578972459E-1,-8.578512073E-1,1.031242130E0
2.877362261E0,3.256240487E-1,3.723761737E-1,-8.871726990E-1,1.015761012E0
2.879807209E0,3.103524148E-1,2.899094522E-1,-9.140507579E-1,1.007896274E0
2.882252938E0,2.975242734E-1,2.111079097E-1,-9.397071004E-1,1.008036050E0
2.884697886E0,2.883613110E-1,1.396367252E-1,-9.610873461E-1,1.013084176E0
2.887142053E0,2.810309231E-1,7.549594343E-2,-9.843001962E-1,1.026413607E0
2.889587001E0,2.810309231E-1,1.196600683E-2,-1.001404524E0,1.040159885E0
2.892032730E0,2.840852439E-1,-4.056836292E-2,-1.016676188E0,1.056399871E0
2.894477678E0,2.914156318E-1,-8.088542521E-2,-1.027060866E0,1.070663134E0
2.896921844E0,2.987459898E-1,-9.921136498E-2,-1.031336904E0,1.078307873E0
2.899366792E0,3.079089820E-1,-1.022657007E-1,-1.032558680E0,1.082332500E0
2.901812522E0,3.219588697E-1,-9.188099205E-2,-1.028893471E0,1.081998801E0
2.904257469E0,3.433391154E-1,-7.844197005E-2,-1.025839090E0,1.084610866E0
2.906701584E0,3.744932115E-1,-6.744641066E-2,-1.017897844E0,1.086696924E0
2.909146532E0,4.123668373E-1,-5.034219846E-2,-1.008123994E0,1.090364495E0
2.911592261E0,4.526838958E-1,-2.835106663E-2,-9.977392554E-1,1.095997315E0
2.914037209E0,4.868923426E-1,7.079088595E-3,-9.836893082E-1,1.097615106E0
2.916481376E0,5.131595135E-1,5.350480229E-2,-9.708611965E-1,1.099439363E0
2.918926324E0,5.357615352E-1,1.078717709E-1,-9.598656297E-1,1.104544598E0
2.921372053E0,5.516439676E-1,1.616278589E-1,-9.494808912E-1,1.109931797E0
2.923817001E0,5.595852137E-1,2.074427158E-1,-9.452048540E-1,1.117846281E0
2.926261167E0,5.663047433E-1,2.355424911E-1,-9.433722496E-1,1.125225546E0
2.928706115E0,5.705807805E-1,2.453163415E-1,-9.415396452E-1,1.127935919E0
2.931151844E0,5.754677057E-1,2.312664241E-1,-9.354310036E-1,1.122353956E0
2.933596792E0,5.809655190E-1,1.995014697E-1,-9.213811159E-1,1.107368471E0
2.936040907E0,5.846306682E-1,1.536866128E-1,-8.981682658E-1,1.082644368E0
2.938485855E0,5.815763474E-1,1.115369499E-1,-8.664032817E-1,1.049440892E0
2.940931584E0,5.724133849E-1,6.938728690E-2,-8.285297155E-1,1.009422195E0
2.943376532E0,5.583634973E-1,3.029194660E-2,-7.876017690E-1,9.659212926E-1
2.945820699E0,5.382049680E-1,-1.124685444E-2,-7.485064268E-1,9.219831616E-1
2.948265647E0,5.119377971E-1,-5.767257512E-2,-7.142980099E-1,8.806974968E-1
2.950711376E0,4.820054173E-1,-1.132612675E-1,-6.880308390E-1,8.476696128E-1
2.953156324E0,4.477970004E-1,-1.865650266E-1,-6.715374589E-1,8.284269560E-1
2.955600490E0,4.099233747E-1,-2.757512927E-1,-6.684831381E-1,8.312314085E-1
2.958045438E0,3.677737117E-1,-3.838743567E-1,-6.770352721E-1,8.608099584E-1
2.960491167E0,3.231805861E-1,-5.054363608E-1,-6.953611970E-1,9.183892423E-1
2.962936115E0,2.743114233E-1,-6.379940510E-1,-7.179631591E-1,9.988765008E-1
2.965380230E0,2.254422456E-1,-7.784929276E-1,-7.399542928E-1,1.097455147E0
2.967825178E0,1.790165305E-1,-9.202135205E-1,-7.582802773E-1,1.205748241E0
2.970270959E0,1.362559944E-1,-1.058879852E0,-7.717192769E-1,1.317324136E0
2.972715855E0,9.654978663E-2,-1.181052804E0,-7.772170901E-1,1.417135841E0
2.975160022E0,5.989789963E-2,-1.281845450E0,-7.698866725E-1,1.496476196E0
2.977604969E0,2.935466543E-2,-1.360036135E0,-7.533933520E-1,1.555043899E0
2.980050699E0,7.363534532E-3,-1.415624857E0,-7.289587259E-1,1.592302980E0
2.982495647E0,-6.075489335E-3,-1.457163692E0,-6.971938014E-1,1.615376777E0
2.984939813E0,-9.740677662E-3,-1.486485124E0,-6.605418921E-1,1.626667912E0
2.987384761E0,-9.129812941E-3,-1.502367616E0,-6.214465499E-1,1.625849815E0
2.989830490E0,1.865752041E-3,-1.509698033E0,-5.792968869E-1,1.617027061E0
2.992275438E0,1.408304740E-2,-1.506643653E0,-5.365363359E-1,1.599388842E0
2.994719605E0,2.691120654E-2,-1.490761161E0,-4.931649864E-1,1.570447311E0
2.997164501E0,3.973936290E-2,-1.473046064E0,-4.522370696E-1,1.541415678E0
2.999610282E0,5.256752297E-2,-1.449222445E0,-4.155851901E-1,1.508549002E0
3.002055230E0,6.478481740E-2,-1.424176931E0,-3.832093477E-1,1.476254182E0
3.004499344E0,7.578038424E-2,-1.394855380E0,-3.606073558E-1,1.442706437E0
3.006944292E0,8.311075717E-2,-1.372253418E0,-3.483900428E-1,1.418225110E0
3.009390022E0,9.227373451E-2,-1.363090515E0,-3.459466100E-1,1.409329362E0
3.011834969E0,1.014367044E-1,-1.366755605E0,-3.496117890E-1,1.414404006E0
3.014279136E0,1.087670773E-1,-1.378973007E0,-3.593856096E-1,1.429179782E0
3.016724084E0,1.118214056E-1,-1.397298932E0,-3.703811765E-1,1.449872597E0
3.019169813E0,1.099888086E-1,-1.415624857E0,-3.807658851E-1,1.470059160E0
3.021614761E0,1.020475700E-1,-1.430896401E0,-3.868745267E-1,1.485782662E0
3.024058928E0,8.677595109E-2,-1.435783386E0,-3.880962729E-1,1.489839829E0
3.026503876E0,6.906086951E-2,-1.437005043E0,-3.856528103E-1,1.489456608E0
3.028949605E0,4.951319844E-2,-1.439448595E0,-3.807658851E-1,1.489780680E0
3.031394553E0,3.301985189E-2,-1.445557237E0,-3.752681017E-1,1.493838071E0
3.033838667E0,1.958082989E-2,-1.455941916E0,-3.679377139E-1,1.501841680E0
3.036283615E0,6.141805090E-3,-1.472435236E0,-3.587747514E-1,1.515527159E0
3.038729344E0,-4.242895171E-3,-1.493815541E0,-3.496117890E-1,1.534187497E0
3.041174292E0,-1.523846015E-2,-1.513363242E0,-3.367836177E-1,1.550459196E0
3.043618459E0,-3.173180670E-2,-1.531078219E0,-3.227337301E-1,1.565044562E0
3.046063407E0,-5.189034343E-2,-1.546349883E0,-3.050186634E-1,1.576999351E0
3.048509136E0,-7.510320097E-2,-1.557956338E0,-2.879144549E-1,1.586115751E0
3.050954084E0,-1.019812524E-1,-1.567730188E0,-2.683667839E-1,1.593800129E0
3.053398251E0,-1.294701546E-1,-1.574449658E0,-2.512625754E-1,1.599620933E0
3.055843199E0,-1.563481987E-1,-1.583612680E0,-2.353800684E-1,1.608626015E0
3.058288928E0,-1.771176010E-1,-1.594608188E0,-2.213301808E-1,1.619608893E0
3.060733876E0,-1.917783618E-1,-1.604992867E0,-2.078911513E-1,1.629723833E0
3.063177990E0,-2.009413242E-1,-1.605603814E0,-1.950629950E-1,1.629843734E0
3.065622938E0,-2.058282495E-1,-1.586666942E0,-1.828456968E-1,1.610375671E0
3.068068719E0,-2.070499808E-1,-1.540241241E0,-1.694066823E-1,1.563301443E0
3.070513667E0,-2.027739286E-1,-1.466326594E0,-1.553567946E-1,1.488410790E0
3.072957782E0,-1.905566305E-1,-1.367366552E0,-1.413069069E-1,1.387793486E0
3.075402730E0,-1.697872281E-1,-1.245804429E0,-1.272570193E-1,1.263744724E0
3.077848459E0,-1.368005276E-1,-1.105305552E0,-1.095419526E-1,1.119113126E0
3.080293407E0,-9.404000640E-2,-9.446481466E-1,-9.060513973E-2,9.536314461E-1
3.082737574E0,-3.967304900E-2,-7.668864727E-1,-7.105746865E-2,7.711925678E-1
3.085182522E0,2.202428877E-2,-5.726315379E-1,-4.662287608E-2,5.749483804E-1
3.087628251E0,9.044113755E-2,-3.612723649E-1,-2.218828909E-2,3.730812795E-1
3.090073199E0,1.631340533E-1,-1.425827742E-1,8.354946971E-3,2.168233659E-1
3.092517365E0,2.370486706E-1,7.855026424E-2,4.378510267E-2,2.535337285E-1
3.094962261E0,3.121850193E-1,3.002941310E-1,8.410216868E-2,4.412586839E-1
3.097408042E0,3.812127411E-1,5.177620053E-1,1.335822195E-1,6.566923614E-1
3.099852990E0,4.435209334E-1,7.285103202E-1,1.897817701E-1,8.737592490E-1
3.102297105E0,4.948335886E-1,9.288739562E-1,2.508682311E-1,1.081943610E0
3.104742053E0,5.369832516E-1,1.110300779E0,3.180633485E-1,1.273688787E0
3.107187782E0,5.663047433E-1,1.267292976E0,3.877019286E-1,1.441195801E0
3.109632730E0,5.852415562E-1,1.399239779E0,4.597839713E-1,1.584859911E0
3.112076897E0,5.931828022E-1,1.493923783E0,5.324769020E-1,1.693282539E0
3.114521844E0,5.944045186E-1,1.544625640E0,6.063915491E-1,1.762638877E0
3.116967574E0,5.864632726E-1,1.561729789E0,6.796953082E-1,1.801367485E0
3.119412522E0,5.644721389E-1,1.554399490E0,7.523881793E-1,1.816830907E0
3.121856688E0,5.204898715E-1,1.537295222E0,8.232485056E-1,1.819869338E0
3.124301636E0,4.618468881E-1,1.509806275E0,8.910545111E-1,1.812952200E0
3.126747365E0,3.867105246E-1,1.468267560E0,9.551953077E-1,1.793809559E0
3.129192313E0,2.993568778E-1,1.412678838E0,1.016281605E0,1.765815488E0
3.131636428E0,2.028402537E-1,1.342429399E0,1.074313760E0,1.731303242E0
3.134081376E0,1.020475700E-1,1.258740902E0,1.128069878E0,1.693335175E0
3.136527105E0,-2.410301007E-3,1.164056897E0,1.178771615E0,1.656664356E0
3.138972053E0,-1.087007597E-1,1.063264251E0,1.222753882E0,1.624030104E0
3.141416219E0,-2.143803537E-1,9.520868063E-1,1.263681889E0,1.596659055E0
3.143861167E0,-3.145621717E-1,8.335790634E-1,1.298501134E0,1.574772558E0
3.146306897E0,-4.110788107E-1,7.144604325E-1,1.329655290E0,1.564424075E0
3.148751844E0,-5.051519871E-1,6.002287269E-1,1.357755065E0,1.568104547E0
3.151196011E0,-5.961708426E-1,4.957708418E-1,1.381578803E0,1.584287976E0
3.153640959E0,-6.823027134E-1,3.998650908E-1,1.402348161E0,1.609971878E0
3.156086688E0,-7.592716813E-1,3.076245189E-1,1.420674086E0,1.639951581E0
3.158531636E0,-8.240233660E-1,2.263795286E-1,1.435334802E0,1.670463466E0
3.160975751E0,-8.783903122E-1,1.549083441E-1,1.448773861E0,1.701326493E0
3.163420699E0,-9.272595048E-1,9.809793532E-2,1.457325935E0,1.730096031E0
3.165866480E0,-9.633005261E-1,5.289393663E-2,1.462823749E0,1.752312470E0
3.168311376E0,-9.907894135E-1,1.868551783E-2,1.462823749E0,1.766880338E0
3.170755542E0,-1.010947943E0,3.595738672E-4,1.459769487E0,1.775652789E0
3.173200490E0,-1.025608659E0,-5.138205830E-3,1.452439070E0,1.778054772E0
3.175646219E0,-1.041491151E0,4.024764057E-3,1.441443443E0,1.778336081E0
3.178091167E0,-1.056151986E0,2.296156995E-2,1.422506690E0,1.771866116E0
3.180535334E0,-1.068369269E0,4.983961582E-2,1.401737332E0,1.763168861E0
3.182980282E0,-1.078753948E0,8.282631636E-2,1.375470042E0,1.749996605E0
3.185426011E0,-1.084251761E0,1.182564646E-1,1.349813819E0,1.735391546E0
3.187870959E0,-1.086695194E0,1.579626650E-1,1.324768305E0,1.720717789E0
3.190315126E0,-1.078753948E0,1.952254176E-1,1.303388119E0,1.703127603E0
3.192760022E0,-1.059817195E0,2.263795286E-1,1.287505627E0,1.682893614E0
3.195205803E0,-1.030495644E0,2.514249682E-1,1.283229470E0,1.664876470E0
3.197650699E0,-9.895676970E-1,2.734161019E-1,1.285673022E0,1.645282867E0
3.200094865E0,-9.425311089E-1,2.954072058E-1,1.299722910E0,1.632455191E0
3.202539813E0,-8.893858790E-1,3.235070109E-1,1.323546648E0,1.627095497E0
3.204985542E0,-8.521231413E-1,3.461090028E-1,1.351035476E0,1.634381273E0
3.207430490E0,-8.038648367E-1,3.797065616E-1,1.379746199E0,1.641363860E0
3.209874657E0,-7.598825693E-1,3.894803822E-1,1.407235026E0,1.646033689E0
3.212319605E0,-7.177329063E-1,3.833717406E-1,1.424339294E0,1.640383139E0
3.214765334E0,-6.688637137E-1,3.595480025E-1,1.437167406E0,1.625454886E0
3.217210282E0,-6.358770132E-1,3.106788397E-1,1.435334802E0,1.600327126E0
3.219654449E0,-5.827317834E-1,2.355424911E-1,1.421284914E0,1.554061583E0
3.222099397E0,-5.485233665E-1,1.249759793E-1,1.388298273E0,1.497954931E0
3.224545126E0,-5.027084947E-1,1.013340987E-2,1.341261625E0,1.432410997E0
3.226990074E0,-4.794956446E-1,-1.248676926E-1,1.273455739E0,1.366454366E0
3.229434188E0,-4.526176155E-1,-2.445971817E-1,1.192821503E0,1.299043350E0
3.231879136E0,-4.465089738E-1,-3.460007310E-1,1.093250632E0,1.230562357E0
3.234324865E0,-4.593371153E-1,-3.973133862E-1,9.784081578E-1,1.151577629E0
3.236769813E0,-4.703326821E-1,-4.119741321E-1,8.531808853E-1,1.057758545E0
3.239213980E0,-4.917129576E-1,-4.070872068E-1,7.169580460E-1,9.599637839E-1
3.241658928E0,-4.788847864E-1,-3.832634985E-1,5.752374530E-1,8.409040821E-1
3.244104657E0,-4.648348987E-1,-3.539419770E-1,4.292407334E-1,7.249786296E-1
3.246549605E0,-4.141331315E-1,-2.995750308E-1,2.911853194E-1,5.882519358E-1
3.248993772E0,-3.640422225E-1,-2.360450774E-1,1.653471887E-1,4.643099301E-1
3.251438719E0,-2.889058590E-1,-1.383067071E-1,5.539153144E-2,3.250593213E-1
3.253884449E0,-2.113260329E-1,-2.835106663E-2,-3.440558165E-2,2.159773581E-1
3.256329397E0,-1.306918859E-1,1.066500396E-1,-1.046550274E-1,1.985126564E-1
3.258773511E0,-4.028391466E-2,2.489815205E-1,-1.541350633E-1,2.955879042E-1
3.261218459E0,3.240898624E-2,3.955890238E-1,-1.889543533E-1,4.395961394E-1
3.263664188E0,1.173191816E-1,5.452508926E-1,-2.091128826E-1,5.956429501E-1
3.266109136E0,1.729078740E-1,6.753650904E-1,-2.219410390E-1,7.316235118E-1
3.268553303E0,2.407138646E-1,7.975380421E-1,-2.286605537E-1,8.638841022E-1
3.270998251E0,2.798092067E-1,8.800047636E-1,-2.359909266E-1,9.530966864E-1
3.273443980E0,3.256240487E-1,9.429238439E-1,-2.433213145E-1,1.026811404E0
3.275888928E0,3.549455404E-1,9.661366940E-1,-2.561494708E-1,1.060669128E0
3.278333094E0,3.824344575E-1,9.557520151E-1,-2.720319629E-1,1.064762611E0
3.280778042E0,4.105342329E-1,9.099371433E-1,-2.885253131E-1,1.039120213E0
3.283223772E0,4.190863371E-1,8.409094214E-1,-3.092947006E-1,9.891537923E-1
3.285668719E0,4.319145083E-1,7.810447216E-1,-3.270097971E-1,9.505348006E-1
3.288112834E0,4.019821286E-1,7.248451710E-1,-3.502226472E-1,8.998033431E-1
3.290557782E0,3.787692785E-1,6.875823736E-1,-3.771007061E-1,8.708849691E-1
3.293003563E0,3.305109739E-1,6.326045990E-1,-4.143634439E-1,8.253018515E-1
3.295448511E0,2.993568778E-1,5.727398396E-1,-4.577348530E-1,7.919385455E-1
3.297892626E0,2.663701773E-1,4.823318422E-1,-5.102691650E-1,7.509804912E-1
3.300337574E0,2.401030064E-1,3.852043450E-1,-5.683013201E-1,7.273226461E-1
3.302783303E0,2.211661935E-1,2.770812809E-1,-6.312204003E-1,7.239666534E-1
3.305228251E0,1.948990077E-1,1.597952694E-1,-6.923068762E-1,7.367557004E-1
3.307672417E0,1.869577765E-1,4.617442936E-2,-7.454521060E-1,7.699247564E-1
3.310117365E0,1.747404784E-1,-6.744641066E-2,-7.869908810E-1,8.089733616E-1
3.312563094E0,1.704644263E-1,-1.664064974E-1,-8.169232607E-1,8.509482104E-1
3.315008042E0,1.606905907E-1,-2.390993983E-1,-8.315840364E-1,8.800693142E-1
3.317452157E0,1.496950239E-1,-2.788056135E-1,-8.328057528E-1,8.909021226E-1
3.319897157E0,1.374777257E-1,-2.940772474E-1,-8.236427903E-1,8.853072905E-1
3.322342886E0,1.356451362E-1,-2.971315682E-1,-8.089820147E-1,8.724326174E-1
3.324787834E0,1.448080987E-1,-3.001858890E-1,-7.894343734E-1,8.569058194E-1
3.327231949E0,1.649666429E-1,-3.075162470E-1,-7.662215233E-1,8.419475389E-1
3.329676897E0,1.887903661E-1,-3.117923141E-1,-7.405651808E-1,8.254047712E-1
3.332122626E0,2.168901414E-1,-3.240095973E-1,-7.167414427E-1,8.159300511E-1
3.334567574E0,2.437681854E-1,-3.386703730E-1,-6.947503090E-1,8.104310838E-1
3.337011740E0,2.675918937E-1,-3.576071560E-1,-6.745917797E-1,8.090502882E-1
3.339456688E0,2.840852439E-1,-3.808200359E-1,-6.556549668E-1,8.096985619E-1
3.341902417E0,2.920264900E-1,-4.076980650E-1,-6.422159672E-1,8.148242336E-1
3.344347365E0,2.901938856E-1,-4.419065118E-1,-6.330530047E-1,8.247726736E-1
3.346791532E0,2.804200649E-1,-4.840561748E-1,-6.281660795E-1,8.411530280E-1
3.349236480E0,2.657592893E-1,-5.384231210E-1,-6.287769079E-1,8.694181140E-1
3.351682209E0,2.468225062E-1,-6.013421416E-1,-6.336638331E-1,9.077794745E-1
3.354127157E0,2.254422456E-1,-6.746459007E-1,-6.440485716E-1,9.595675380E-1
3.356571272E0,2.028402537E-1,-7.528365850E-1,-6.605418921E-1,1.021872146E0
3.359016219E0,1.832925826E-1,-8.322490454E-1,-6.807004213E-1,1.090682221E0
3.361461949E0,1.606905907E-1,-9.098288417E-1,-7.020807266E-1,1.160399644E0
3.363906897E0,1.356451362E-1,-9.758022428E-1,-7.259044051E-1,1.223734786E0
3.366351063E0,1.112105399E-1,-1.028947473E0,-7.540041804E-1,1.280477641E0
3.368796011E0,8.921940625E-2,-1.073540568E0,-7.808822393E-1,1.330498601E0
3.371241740E0,6.906086951E-2,-1.107748985E0,-8.089820147E-1,1.373436973E0
3.373686688E0,5.440011621E-2,-1.138292193E0,-8.370817900E-1,1.413992367E0
3.376130855E0,4.401541874E-2,-1.165170312E0,-8.609055281E-1,1.449385229E0
3.378575803E0,3.912850097E-2,-1.189604878E0,-8.810640574E-1,1.480866192E0
3.381021532E0,3.851763532E-2,-1.213428617E0,-8.987791538E-1,1.510528577E0
3.383466480E0,4.218282551E-2,-1.235419750E0,-9.054986238E-1,1.532308424E0
3.385910594E0,5.195666105E-2,-1.262297750E0,-9.085530043E-1,1.556137418E0
3.388355542E0,6.539568305E-2,-1.290397525E0,-9.036660790E-1,1.576710103E0
3.390801324E0,8.249989897E-2,-1.312388659E0,-8.945031166E-1,1.590379216E0
3.393246219E0,9.471718967E-2,-1.321551681E0,-8.773988485E-1,1.589118916E0
3.395690386E0,1.051018909E-1,-1.316053867E0,-8.541859984E-1,1.572475090E0
3.398135334E0,1.142648607E-1,-1.302003980E0,-8.273079395E-1,1.546838469E0
3.400581063E0,1.301473528E-1,-1.276958585E0,-7.973756194E-1,1.511082208E0
3.403026011E0,1.399211884E-1,-1.239084959E0,-7.643889189E-1,1.462600388E0
3.405470178E0,1.515276134E-1,-1.193270087E0,-7.326239347E-1,1.408400493E0
3.407915126E0,1.661883742E-1,-1.146844387E0,-7.033024430E-1,1.355545997E0
3.410360855E0,1.906229556E-1,-1.106527328E0,-6.721483469E-1,1.308634112E0
3.412805803E0,2.199444622E-1,-1.072318912E0,-6.452702880E-1,1.270675867E0
3.415249969E0,2.523202896E-1,-1.040553927E0,-6.208357215E-1,1.237681299E0
3.417694865E0,2.822526395E-1,-1.005123734E0,-5.994554162E-1,1.203863393E0
3.420140647E0,3.085198402E-1,-9.648066759E-1,-5.823512077E-1,1.168404614E0
3.422585594E0,3.317326903E-1,-9.226570129E-1,-5.750208497E-1,1.136658048E0
3.425029709E0,3.567781448E-1,-8.890594244E-1,-5.737991333E-1,1.116674863E0
3.427474657E0,3.787692785E-1,-8.579053283E-1,-5.786859989E-1,1.101973323E0
3.429920386E0,3.977060914E-1,-8.291947246E-1,-5.884598494E-1,1.091796236E0
3.432365334E0,4.160320163E-1,-8.041492701E-1,-5.970119834E-1,1.084510026E0
3.434809501E0,4.331362247E-1,-7.827689648E-1,-6.049532294E-1,1.079954930E0
3.437254449E0,4.477970004E-1,-7.619996071E-1,-6.055640578E-1,1.071388530E0
3.439700178E0,4.581816792E-1,-7.326780558E-1,-6.037314534E-1,1.054153334E0
3.442145126E0,4.649012089E-1,-6.972479224E-1,-5.988445878E-1,1.030001281E0
3.444589292E0,4.740641713E-1,-6.660938263E-1,-5.933467746E-1,1.010187220E0
3.447034188E0,4.862814546E-1,-6.489896178E-1,-5.860164165E-1,1.000536065E0
3.449479969E0,5.027748346E-1,-6.459352970E-1,-5.768534541E-1,1.001386464E0
3.451924917E0,5.180464387E-1,-6.557091475E-1,-5.676904917E-1,1.010247046E0
3.454369032E0,5.327072144E-1,-6.709807515E-1,-5.579166412E-1,1.022381105E0
3.456813980E0,5.394266844E-1,-6.874740720E-1,-5.438667536E-1,1.029268086E0
3.459259709E0,5.363723636E-1,-7.051891685E-1,-5.292059779E-1,1.032010680E0
3.461704657E0,5.241550803E-1,-7.222933769E-1,-5.151560903E-1,1.030452361E0
3.464148824E0,5.009422302E-1,-7.393975854E-1,-5.035496950E-1,1.025287376E0
3.466593772E0,4.746750295E-1,-7.607778311E-1,-4.968301952E-1,1.025153420E0
3.469039501E0,4.429100752E-1,-7.955971360E-1,-4.949975908E-1,1.036420162E0
3.471484449E0,4.129776955E-1,-8.438554406E-1,-4.980519116E-1,1.063342978E0
3.473928615E0,3.842670619E-1,-9.086071253E-1,-5.084365606E-1,1.109835942E0
3.476373563E0,3.573890030E-1,-9.794674516E-1,-5.218756199E-1,1.165949206E0
3.478819292E0,3.311218321E-1,-1.047884226E0,-5.389798284E-1,1.224010733E0
3.481264240E0,3.079089820E-1,-1.109581590E0,-5.603600740E-1,1.280618077E0
3.483708355E0,2.846961021E-1,-1.149287820E0,-5.823512077E-1,1.319487511E0
3.486153303E0,2.620941103E-1,-1.166392088E0,-6.018989086E-1,1.338449148E0
3.488599032E0,2.425464541E-1,-1.157229066E0,-6.208357215E-1,1.335456808E0
3.491043980E0,2.260531187E-1,-1.123020649E0,-6.391616464E-1,1.311793810E0
3.493488147E0,2.156684101E-1,-1.064988494E0,-6.538223624E-1,1.268147088E0
3.495933094E0,2.107814997E-1,-9.910738468E-1,-6.648179293E-1,1.211874205E0
3.498378824E0,2.193336040E-1,-9.098288417E-1,-6.721483469E-1,1.152249605E0
3.500823772E0,2.394921333E-1,-8.243077993E-1,-6.721483469E-1,1.090239987E0
3.503267938E0,2.675918937E-1,-7.253476977E-1,-6.672614217E-1,1.021260255E0
3.505712886E0,2.993568778E-1,-6.123377085E-1,-6.587092876E-1,9.478765400E-1
3.508158615E0,3.311218321E-1,-4.803909659E-1,-6.446594000E-1,8.694842666E-1
3.510603563E0,3.628867865E-1,-3.362269104E-1,-6.275551915E-1,7.991000397E-1
3.513047678E0,3.952626288E-1,-1.853432953E-1,-6.049532294E-1,7.460248606E-1
3.515492626E0,4.300819039E-1,-2.774020098E-2,-5.805186033E-1,7.230088600E-1
3.517938407E0,4.667337835E-1,1.304737628E-1,-5.487536788E-1,7.321164029E-1
3.520383355E0,5.033856630E-1,2.892985642E-1,-5.078257322E-1,7.713480144E-1
3.522827469E0,5.424810052E-1,4.493451416E-1,-4.607891738E-1,8.417382966E-1
3.525272417E0,5.821872354E-1,6.106134653E-1,-4.058113396E-1,9.362017007E-1
3.527718147E0,6.212825775E-1,7.779904008E-1,-3.428922594E-1,1.053012918E0
3.530163094E0,6.579344273E-1,9.429238439E-1,-2.708102465E-1,1.181237180E0
3.532607261E0,6.927537322E-1,1.107246518E0,-1.926195323E-1,1.320229097E0
3.535052209E0,7.226861119E-1,1.266071320E0,-1.095419526E-1,1.461920395E0
3.537497938E0,7.477315664E-1,1.416954875E0,-1.974483021E-2,1.602265107E0
3.539942886E0,7.691118121E-1,1.555010319E0,7.371747494E-2,1.736382543E0
3.542387053E0,7.819399834E-1,1.682070136E0,1.690123826E-1,1.862620537E0
3.544832001E0,7.868269086E-1,1.797523618E0,2.636964023E-1,1.979829168E0
3.547277730E0,7.831616998E-1,1.902592301E0,3.547152281E-1,2.087827245E0
3.549722678E0,7.685009837E-1,1.992389441E0,4.426797628E-1,2.180865612E0
3.552166792E0,7.471206784E-1,2.063860655E0,5.263682604E-1,2.257160530E0
3.554611740E0,7.135231495E-1,2.117616653E0,6.051697731E-1,2.315090933E0
3.557057469E0,6.725952029E-1,2.153046846E0,6.790844202E-1,2.355663533E0
3.559502417E0,6.249477863E-1,2.166485786E0,7.493338585E-1,2.376072732E0
3.561946584E0,5.724133849E-1,2.160377264E0,8.128638268E-1,2.378157818E0
3.564391532E0,5.107160807E-1,2.138997078E0,8.751720190E-1,2.366868285E0
3.566837261E0,4.447426796E-1,2.104788542E0,9.325932860E-1,2.344709170E0
3.569282209E0,3.744932115E-1,2.054697752E0,9.869602323E-1,2.310004008E0
3.571726376E0,2.999677360E-1,1.999109030E0,1.036440134E0,2.271701060E0
3.574171324E0,2.156684101E-1,1.947185397E0,1.082255006E0,2.238150963E0
3.576617053E0,1.289256215E-1,1.897094607E0,1.126848102E0,2.210288762E0
3.579062001E0,3.729590774E-2,1.844560146E0,1.167165279E0,2.183132590E0
3.581506115E0,-5.433380231E-2,1.784084558E0,1.200762749E0,2.151218504E0
3.583951063E0,-1.398548633E-1,1.712613344E0,1.231306076E0,2.113934366E0
3.586396792E0,-2.229324579E-1,1.629535794E0,1.258184075E0,2.070775930E0
3.588841740E0,-3.053992093E-1,1.553788543E0,1.281396985E0,2.037033565E0
3.591285907E0,-3.890876770E-1,1.488426089E0,1.300944567E0,2.014760087E0
3.593730855E0,-4.685000777E-1,1.428561330E0,1.318048835E0,1.999383037E0
3.596176584E0,-5.454690456E-1,1.372361779E0,1.330266118E0,1.987591829E0
3.598621532E0,-6.151075959E-1,1.325325131E0,1.339429021E0,1.982148874E0
3.601065699E0,-6.816918850E-1,1.287451506E0,1.346148610E0,1.983519923E0
3.603510647E0,-7.421674728E-1,1.262406111E0,1.351035476E0,1.992430326E0
3.605956376E0,-7.965344191E-1,1.244691014E0,1.355311513E0,2.005141416E0
3.608401324E0,-8.429601789E-1,1.237360597E0,1.359587669E0,2.022404940E0
3.610845438E0,-8.826663494E-1,1.240414977E0,1.365085363E0,2.044795161E0
3.613290386E0,-9.132096171E-1,1.252632260E0,1.371804953E0,2.069997153E0
3.615736167E0,-9.394767880E-1,1.267292976E0,1.379746199E0,2.095792856E0
3.618181063E0,-9.590244889E-1,1.284397244E0,1.391352534E0,2.122561219E0
3.620625230E0,-9.681874514E-1,1.296003699E0,1.405402422E0,2.142934553E0
3.623070178E0,-9.651331306E-1,1.288062453E0,1.423117518E0,2.148453005E0
3.625515907E0,-9.516940713E-1,1.266682148E0,1.447552085E0,2.146069036E0
3.627960855E0,-9.278703332E-1,1.224532485E0,1.472597599E0,2.128136944E0
3.630405022E0,-8.967162371E-1,1.163446069E0,1.501308203E0,2.100388794E0
3.632849969E0,-8.686164618E-1,1.102970362E0,1.531240582E0,2.077434932E0
3.635295699E0,-8.539557457E-1,1.054101229E0,1.559340358E0,2.066860462E0
3.637740647E0,-8.637295365E-1,1.034553528E0,1.582553267E0,2.078654507E0
3.640184761E0,-8.942728043E-1,1.040662169E0,1.600268364E0,2.107975435E0
3.642629761E0,-9.370333552E-1,1.053490400E0,1.607598662E0,2.138281317E0
3.645075490E0,-9.779612422E-1,1.045549154E0,1.604544401E0,2.150382282E0
3.647520386E0,-1.000563264E0,9.942364693E-1,1.588661909E0,2.124495155E0
3.649964553E0,-9.926220179E-1,8.916112185E-1,1.562394738E0,2.054591530E0
3.652409501E0,-9.633005261E-1,7.535557747E-1,1.530629754E0,1.959240070E0
3.654855230E0,-9.242051840E-1,6.191655397E-1,1.498253942E0,1.866088439E0
3.657300178E0,-8.899967670E-1,5.165402889E-1,1.468321562E0,1.793007620E0
3.659744344E0,-8.661730289E-1,4.548429251E-1,1.442054391E0,1.742601122E0
3.662189292E0,-8.563991785E-1,4.285757244E-1,1.422506690E0,1.714824186E0
3.664635022E0,-8.533448577E-1,4.200236201E-1,1.396239519E0,1.689408797E0
3.667079969E0,-8.502905369E-1,4.163584411E-1,1.368139744E0,1.663777241E0
3.669524136E0,-8.509014249E-1,4.059737325E-1,1.333931327E0,1.633468913E0
3.671969084E0,-8.527340293E-1,3.870369196E-1,1.291781664E0,1.595510191E0
3.674414813E0,-8.447927833E-1,3.406112194E-1,1.241690755E0,1.539963240E0
3.676859761E0,-8.215798736E-1,2.508141100E-1,1.179993391E0,1.459549797E0
3.679303876E0,-7.800410986E-1,1.139804125E-1,1.110354781E0,1.361742777E0
3.681748824E0,-7.287284732E-1,-4.973133281E-2,1.037661910E0,1.268960454E0
3.684194553E0,-6.804701686E-1,-2.000040561E-1,9.600822330E-1,1.193649516E0
3.686639501E0,-6.499269009E-1,-3.136249185E-1,8.776154518E-1,1.136210565E0
3.689083667E0,-6.370987296E-1,-3.912047148E-1,7.884292006E-1,1.086534180E0
3.691528615E0,-6.346552968E-1,-4.406847656E-1,6.925234795E-1,1.037583335E0
3.693974344E0,-6.419856548E-1,-4.608432949E-1,5.935633779E-1,9.883519651E-1
3.696419292E0,-6.511486173E-1,-4.559563994E-1,4.884946048E-1,9.330154012E-1
3.698863459E0,-6.572573185E-1,-4.327435195E-1,3.785389662E-1,8.732387333E-1
3.701308407E0,-6.578681469E-1,-4.052546024E-1,2.630855143E-1,8.162326748E-1
3.703754136E0,-6.401530504E-1,-3.789874315E-1,1.457995176E-1,7.580797455E-1
3.706199084E0,-6.089989543E-1,-3.557745814E-1,3.095694073E-2,7.059841438E-1
3.708643199E0,-5.662384629E-1,-3.313399851E-1,-8.022044599E-2,6.609444020E-1
3.711088147E0,-5.198127031E-1,-3.038510680E-1,-1.828456968E-1,6.292561217E-1
3.713533928E0,-4.654457569E-1,-2.714752257E-1,-2.744754255E-1,6.047109309E-1
3.715978824E0,-4.086353481E-1,-2.366559356E-1,-3.551095724E-1,5.908398159E-1
3.718422990E0,-3.512140512E-1,-1.993931830E-1,-4.204720855E-1,5.830143445E-1
3.720867938E0,-2.931819260E-1,-1.664064974E-1,-4.748390615E-1,5.823391610E-1
3.723313667E0,-2.333171517E-1,-1.376958489E-1,-5.157669783E-1,5.825912941E-1
3.725758615E0,-1.740632802E-1,-1.102069318E-1,-5.456993580E-1,5.832935647E-1
3.728202782E0,-1.178637370E-1,-8.149629831E-2,-5.683013201E-1,5.860886431E-1
3.730647730E0,-6.532936543E-2,-4.912046716E-2,-5.829620957E-1,5.886642093E-1
3.733093459E0,-9.740677662E-3,-1.124685444E-2,-5.896815658E-1,5.898692410E-1
3.735538407E0,4.462628067E-2,3.456799686E-2,-5.927358866E-1,5.954177379E-1
3.737982522E0,9.777151048E-2,9.076756239E-2,-5.982336998E-1,6.129286893E-1
3.740427469E0,1.515276134E-1,1.555192173E-1,-6.080075502E-1,6.456160048E-1
3.742873251E0,2.071163058E-1,2.269903868E-1,-6.251117587E-1,6.965533079E-1
3.745318199E0,2.627049685E-1,3.002941310E-1,-6.556549668E-1,7.675114990E-1
3.747762313E0,3.182936609E-1,3.699327111E-1,-6.953611970E-1,8.495223715E-1
3.750207261E0,3.671628535E-1,4.401821494E-1,-7.491172552E-1,9.432632441E-1
3.752652990E0,4.099233747E-1,5.128750801E-1,-8.169232607E-1,1.048065663E0
3.755097938E0,4.435209334E-1,5.800701976E-1,-8.938922286E-1,1.154225095E0
3.757542105E0,4.703989923E-1,6.405458450E-1,-9.843001962E-1,1.265077495E0
3.759987053E0,4.899466634E-1,6.881932616E-1,-1.077151775E0,1.368909656E0
3.762432782E0,5.021639466E-1,7.217908502E-1,-1.170614004E0,1.464065507E0
3.764877730E0,5.156029463E-1,7.291212082E-1,-1.257967710E0,1.542707651E0
3.767321844E0,5.333180428E-1,7.065191865E-1,-1.332493186E0,1.599729848E0
3.769766792E0,5.504222512E-1,6.668130159E-1,-1.385027528E0,1.632760088E0
3.772212574E0,5.669156313E-1,6.155003905E-1,-1.415570855E0,1.644407161E0
3.774657522E0,5.803546309E-1,5.641877055E-1,-1.418014288E0,1.632753437E0
3.777101636E0,5.901284814E-1,5.183728933E-1,-1.395412326E0,1.601292491E0
3.779546584E0,5.937936306E-1,4.866078794E-1,-1.352651715E0,1.555327865E0
3.781992313E0,5.962371230E-1,4.652276039E-1,-1.295230508E0,1.499852492E0
3.784437261E0,5.992914438E-1,4.493451416E-1,-1.225591898E0,1.436362347E0
3.786881428E0,6.078435183E-1,4.212453663E-1,-1.149844646E0,1.367137196E0
3.789326376E0,6.237260103E-1,3.852043450E-1,-1.074708343E0,1.300928340E0
3.791772105E0,6.414411068E-1,3.461090028E-1,-1.002626300E0,1.239555417E0
3.794217053E0,6.554909945E-1,3.045701981E-1,-9.384853244E-1,1.184561587E0
3.796661219E0,6.622105241E-1,2.611987889E-1,-8.853400946E-1,1.136034625E0
3.799106167E0,6.591562033E-1,2.208817452E-1,-8.474665284E-1,1.096118225E0
3.801551897E0,6.420519948E-1,1.848407239E-1,-8.254753947E-1,1.061982337E0
3.803996844E0,6.121196151E-1,1.451345086E-1,-8.199775815E-1,1.033497790E0
3.806440959E0,5.754677057E-1,9.504359961E-2,-8.315840364E-1,1.015740309E0
3.808885907E0,5.418701768E-1,1.990724541E-2,-8.505208492E-1,1.008665109E0
3.811331636E0,5.156029463E-1,-7.660937309E-2,-8.700684905E-1,1.014265533E0
3.813776584E0,4.923901260E-1,-1.853432953E-1,-8.822857738E-1,1.027243087E0
3.816220751E0,4.728424549E-1,-2.916337848E-1,-8.835075498E-1,1.043655040E0
3.818665699E0,4.539056420E-1,-3.826526105E-1,-8.706793785E-1,1.053819687E0
3.821111428E0,4.325253665E-1,-4.590107203E-1,-8.486882448E-1,1.057374471E0
3.823556376E0,4.087016582E-1,-5.207080245E-1,-8.193667531E-1,1.053345038E0
3.826000542E0,3.848779202E-1,-5.707989335E-1,-7.894343734E-1,1.047448837E0
3.828445490E0,3.598324656E-1,-6.178355217E-1,-7.588911057E-1,1.042648476E0
3.830891219E0,3.366196156E-1,-6.673155427E-1,-7.338456511E-1,1.047450351E0
3.833336167E0,3.152393401E-1,-7.241259813E-1,-7.130762935E-1,1.064054547E0
3.835780282E0,2.956916690E-1,-7.937645316E-1,-6.971938014E-1,1.097075609E0
3.838225230E0,2.804200649E-1,-8.762313128E-1,-6.868090630E-1,1.148095560E0
3.840671011E0,2.663701773E-1,-9.666392803E-1,-6.752026677E-1,1.208818933E0
3.843115907E0,2.553746104E-1,-1.057658076E0,-6.642071009E-1,1.274765810E0
3.845560074E0,2.431573272E-1,-1.141957402E0,-6.477137208E-1,1.335187350E0
3.848005022E0,2.315508872E-1,-1.217704654E0,-6.299986839E-1,1.390438341E0
3.850450751E0,2.217770666E-1,-1.273293376E0,-6.092292666E-1,1.428853172E0
3.852895699E0,2.071163058E-1,-1.304447412E0,-5.847947001E-1,1.444460127E0
3.855339865E0,1.967316121E-1,-1.317886472E0,-5.603600740E-1,1.445521184E0
3.857784813E0,1.863469034E-1,-1.317886472E0,-5.377581120E-1,1.435525586E0
3.860230542E0,1.832925826E-1,-1.311167002E0,-5.175995827E-1,1.421500758E0
3.862675490E0,1.869577765E-1,-1.307501793E0,-4.998845160E-1,1.412231807E0
3.865119605E0,1.967316121E-1,-1.305669188E0,-4.815585613E-1,1.405479991E0
3.867564553E0,2.107814997E-1,-1.306890965E0,-4.607891738E-1,1.401684521E0
3.870010334E0,2.278857082E-1,-1.303836584E0,-4.381871819E-1,1.394248809E0
3.872455230E0,2.419355959E-1,-1.289786696E0,-4.131417274E-1,1.375779285E0
3.874899397E0,2.559854686E-1,-1.266573787E0,-3.844310641E-1,1.348156134E0
3.877344344E0,2.682027519E-1,-1.231143713E0,-3.508335054E-1,1.307949428E0
3.879790074E0,2.834743857E-1,-1.196324348E0,-3.154033720E-1,1.269263157E0
3.882235022E0,2.987459898E-1,-1.158450842E0,-2.824166715E-1,1.229234191E0
3.884679188E0,3.115741611E-1,-1.123020649E0,-2.543168962E-1,1.192866681E0
3.887124136E0,3.231805861E-1,-1.096753478E0,-2.335474789E-1,1.166986850E0
3.889569865E0,3.360087574E-1,-1.089423060E0,-2.207193226E-1,1.161232754E0
3.892014813E0,3.445608616E-1,-1.099196911E0,-2.219410390E-1,1.173121418E0
3.894458980E0,3.476151824E-1,-1.125464082E0,-2.292714268E-1,1.200029625E0
3.896903876E0,3.433391154E-1,-1.158450842E0,-2.420995831E-1,1.232275257E0
3.899349657E0,3.305109739E-1,-1.196935296E0,-2.598146796E-1,1.268619436E0
3.901794605E0,3.109633029E-1,-1.238474011E0,-2.756971419E-1,1.306340295E0
3.904238719E0,2.840852439E-1,-1.277569413E0,-2.934122384E-1,1.341260144E0
3.906683667E0,2.559854686E-1,-1.318497300E0,-3.080729842E-1,1.377995883E0
3.909129397E0,2.284965664E-1,-1.365533948E0,-3.227337301E-1,1.421636629E0
3.911574344E0,2.065054476E-1,-1.419900894E0,-3.343401551E-1,1.473277431E0
3.914018511E0,1.906229556E-1,-1.479154825E0,-3.465574682E-1,1.531123178E0
3.916463459E0,1.790165305E-1,-1.537186861E0,-3.575530350E-1,1.588343331E0
3.918909188E0,1.667992324E-1,-1.583612680E0,-3.685486019E-1,1.634466022E0
3.921354136E0,1.533602029E-1,-1.616599321E0,-3.771007061E-1,1.667068583E0
3.923798303E0,1.362559944E-1,-1.636147022E0,-3.874853849E-1,1.686916624E0
3.926243251E0,1.148757264E-1,-1.641644835E0,-3.984809518E-1,1.693216249E0
3.928688980E0,8.983027190E-2,-1.637979627E0,-4.137525856E-1,1.691814983E0
3.931133928E0,6.783913821E-2,-1.633703589E0,-4.357437193E-1,1.692176751E0
3.933578042E0,4.645887762E-2,-1.628816605E0,-4.620108902E-1,1.693710725E0
3.936022990E0,2.752206847E-2,-1.623318791E0,-4.943867624E-1,1.697156337E0
3.938468772E0,1.041785814E-2,-1.613545060E0,-5.322602987E-1,1.699098943E0
3.940913667E0,-3.632030450E-3,-1.590332150E0,-5.737991333E-1,1.690684768E0
3.943357834E0,-1.218413655E-2,-1.554291129E0,-6.171705127E-1,1.672384169E0
3.945802782E0,-1.523846015E-2,-1.504200220E0,-6.623744965E-1,1.643651571E0
3.948248511E0,-1.035154238E-2,-1.435783386E0,-7.039132714E-1,1.599085670E0
3.950693459E0,1.254887320E-3,-1.344764471E0,-7.405651808E-1,1.535197005E0
3.953137626E0,1.958082989E-2,-1.236030579E0,-7.717192769E-1,1.457293945E0
3.955582574E0,4.462628067E-2,-1.104694724E0,-7.961538434E-1,1.362425367E0
3.958028303E0,7.272606343E-2,-9.489241838E-1,-8.150906563E-1,1.253043880E0
3.960473251E0,1.057127565E-1,-7.729951739E-1,-8.285297155E-1,1.138050181E0
3.962917365E0,1.509167552E-1,-5.921791792E-1,-8.315840364E-1,1.031980647E0
3.965362313E0,2.083380371E-1,-4.052546024E-1,-8.285297155E-1,9.455673006E-1
3.967808094E0,2.700353563E-1,-2.061126977E-1,-8.102037311E-1,8.785394832E-1
3.970252990E0,3.360087574E-1,1.563119330E-2,-7.772170901E-1,8.468840679E-1
3.972697157E0,4.019821286E-1,2.569227517E-1,-7.277370095E-1,8.701724468E-1
3.975142105E0,4.685663879E-1,5.147076845E-1,-6.629853845E-1,9.612637933E-1
3.977587834E0,5.369832516E-1,7.828773260E-1,-5.854055285E-1,1.115323968E0
3.980032782E0,6.060109735E-1,1.052879453E0,-4.943867624E-1,1.311572611E0
3.982476949E0,6.732060909E-1,1.312497020E0,-3.948157728E-1,1.527001756E0
3.984921897E0,7.410120368E-1,1.550734282E0,-2.873035967E-1,1.742532355E0
3.987367626E0,8.088180423E-1,1.766369462E0,-1.736827344E-1,1.950490552E0
3.989812574E0,8.668501973E-1,1.960624456E0,-5.578584969E-2,2.144432229E0
3.992256740E0,9.114432931E-1,2.135331869E0,6.272190809E-2,2.322564338E0
3.994701636E0,9.407648444E-1,2.294767380E0,1.818405390E-1,2.486777393E0
3.997147417E0,9.542038441E-1,2.429768562E0,2.991265357E-1,2.627500129E0
3.999592365E0,9.456517100E-1,2.544000387E0,4.139691293E-1,2.745462724E0
4.002036480E0,9.218280315E-1,2.629521370E0,5.227030516E-1,2.835025226E0
4.004481428E0,8.870087266E-1,2.682666540E0,6.283826828E-1,2.894537794E0
4.006927157E0,8.375287056E-1,2.703435898E0,7.273427248E-1,2.922164853E0
4.009372105E0,7.709444165E-1,2.699770689E0,8.214159012E-1,2.925378804E0
4.011816272E0,6.927537322E-1,2.667394876E0,9.093804359E-1,2.902046853E0
4.014261219E0,6.060109735E-1,2.605086803E0,9.906254411E-1,2.852203590E0
4.016706949E0,5.064399838E-1,2.519565582E0,1.066372514E0,2.782416669E0
4.019151897E0,3.915974498E-1,2.422438145E0,1.136621952E0,2.704341803E0
4.021596063E0,2.633158565E-1,2.308206558E0,1.197708488E0,2.613744130E0
4.024041011E0,1.313690841E-1,2.172594547E0,1.251464605E0,2.510694836E0
4.026486740E0,-4.853759892E-3,2.016824007E0,1.299111962E0,2.399019492E0
4.028931688E0,-1.422983110E-1,1.846392751E0,1.339429021E0,2.285494498E0
4.031375803E0,-2.815755010E-1,1.669242024E0,1.371194005E0,2.178491840E0
4.033820751E0,-4.232960939E-1,1.489647746E0,1.394406915E0,2.083890744E0
4.036266480E0,-5.601298213E-1,1.310053587E0,1.412122011E0,2.006009569E0
4.038711428E0,-6.914657354E-1,1.140233159E0,1.421895862E0,1.949370247E0
4.041155594E0,-8.197473288E-1,9.820191860E-1,1.428615332E0,1.917625910E0
4.043600542E0,-9.382550716E-1,8.372442722E-1,1.429837108E0,1.904136210E0
4.046046272E0,-1.047599792E0,7.052974701E-1,1.428004503E0,1.906333315E0
4.048491219E0,-1.145949125E0,5.880114436E-1,1.418841481E0,1.916264075E0
4.050935386E0,-1.226583242E0,4.774449170E-1,1.410289407E0,1.929086911E0
4.053380334E0,-1.289502263E0,3.711544573E-1,1.399904728E0,1.939150578E0
4.055826063E0,-1.334706306E0,2.697508931E-1,1.391352534E0,1.946809786E0
4.058271011E0,-1.365249515E0,1.793429404E-1,1.385854840E0,1.953628359E0
4.060715126E0,-1.381742835E0,9.809793532E-2,1.382189631E0,1.956855806E0
4.063160074E0,-1.386629820E0,2.968108095E-2,1.378524423E0,1.955492983E0
4.065605803E0,-1.384797215E0,-1.918809488E-2,1.376080990E0,1.952339725E0
4.068050751E0,-1.384186268E0,-4.240095615E-2,1.371804953E0,1.949260961E0
4.070494917E0,-1.389684081E0,-3.507057950E-2,1.363252759E0,1.947025905E0
4.072939865E0,-1.404955745E0,5.246491637E-3,1.345537782E0,1.945353462E0
4.075385594E0,-1.424503326E0,6.511123478E-2,1.321714044E0,1.944319216E0
