"Time (s)","Gyroscope x (rad/s)","Gyroscope y (rad/s)","Gyroscope z (rad/s)","Absolute (rad/s)"
1.084297530E-1,-3.286120594E-1,-1.774813294E0,-1.669050753E-2,1.805055869E0
1.108738680E-1,-3.359424472E-1,-1.744270086E0,-2.463174798E-2,1.776497167E0
1.133187630E-1,-3.438836932E-1,-1.709450722E0,-3.318385407E-2,1.744012309E0
1.157644410E-1,-3.493814766E-1,-1.674020648E0,-4.417941719E-2,1.710661968E0
1.182093360E-1,-3.567118347E-1,-1.634314418E0,-5.517498404E-2,1.673699862E0
1.206533990E-1,-3.634313643E-1,-1.590942979E0,-6.922487915E-2,1.633393401E0
1.230982950E-1,-3.701508641E-1,-1.546960711E0,-8.449649811E-2,1.592871232E0
1.255439720E-1,-3.756486475E-1,-1.500535011E0,-1.028224379E-1,1.550254715E0
1.279888680E-1,-3.805355728E-1,-1.450444102E0,-1.211483628E-1,1.504417609E0
1.304329820E-1,-3.848116100E-1,-1.402185798E0,-1.413069069E-1,1.460880771E0
1.328778260E-1,-3.866442144E-1,-1.350873232E0,-1.596328467E-1,1.414155183E0
1.353235550E-1,-3.872550726E-1,-1.297117114E0,-1.810131073E-1,1.365739742E0
1.377683990E-1,-3.872550726E-1,-1.243971825E0,-2.023933679E-1,1.318482259E0
1.402125130E-1,-3.866442144E-1,-1.188383102E0,-2.249953747E-1,1.269791741E0
1.426574090E-1,-3.848116100E-1,-1.129740119E0,-2.463756353E-1,1.218644191E0
1.451030860E-1,-3.842007518E-1,-1.069875360E0,-2.671450377E-1,1.167737117E0
1.475479820E-1,-3.805355728E-1,-1.009399772E0,-2.897470295E-1,1.116981899E0
1.499920450E-1,-3.774812520E-1,-9.483132958E-1,-3.117381632E-1,1.067225789E0
1.524369410E-1,-3.725943267E-1,-8.866159916E-1,-3.337292969E-1,1.017983149E0
1.548826180E-1,-3.695400059E-1,-8.273621202E-1,-3.532769680E-1,9.725700540E-1
1.573275130E-1,-3.664856851E-1,-7.687190771E-1,-3.728246391E-1,9.296445495E-1
1.597716280E-1,-3.640422225E-1,-7.112978101E-1,-3.905397356E-1,8.893776473E-1
1.622165240E-1,-3.634313643E-1,-6.557091475E-1,-4.076439440E-1,8.533524639E-1
1.646622010E-1,-3.609879017E-1,-6.037856340E-1,-4.241372943E-1,8.214388604E-1
1.671070970E-1,-3.597661853E-1,-5.536947250E-1,-4.406306446E-1,7.938292773E-1
1.695511590E-1,-3.597661853E-1,-5.084906816E-1,-4.546805322E-1,7.711866621E-1
1.719960550E-1,-3.622096181E-1,-4.645085037E-1,-4.668978155E-1,7.516365661E-1
1.744417320E-1,-3.634313643E-1,-4.235805571E-1,-4.797259867E-1,7.359618653E-1
1.768866280E-1,-3.664856851E-1,-3.844852149E-1,-4.907215238E-1,7.231516105E-1
1.793307430E-1,-3.683182895E-1,-3.472224772E-1,-5.023279190E-1,7.131305275E-1
1.817755860E-1,-3.725943267E-1,-3.160683811E-1,-5.114908814E-1,7.073532891E-1
1.842213160E-1,-3.780921102E-1,-2.861360013E-1,-5.175995827E-1,7.019521230E-1
1.866661590E-1,-3.829790354E-1,-2.586470842E-1,-5.255407691E-1,6.998316624E-1
1.891102740E-1,-3.872550726E-1,-2.348233461E-1,-5.316494703E-1,6.983979198E-1
1.915551700E-1,-3.921419978E-1,-2.140539438E-1,-5.377581120E-1,6.991267584E-1
1.940008470E-1,-3.982506394E-1,-1.957280040E-1,-5.414232612E-1,7.000372641E-1
1.964457430E-1,-4.037484229E-1,-1.804563850E-1,-5.469210744E-1,7.033491007E-1
1.988898050E-1,-4.110788107E-1,-1.664064974E-1,-5.487536788E-1,7.055547540E-1
2.013347010E-1,-4.190200567E-1,-1.566326618E-1,-5.499753952E-1,7.089319671E-1
2.037803780E-1,-4.281830192E-1,-1.486914158E-1,-5.499753952E-1,7.126870073E-1
2.062252740E-1,-4.367351234E-1,-1.413610429E-1,-5.505862236E-1,7.168442663E-1
2.086693880E-1,-4.440655112E-1,-1.383067071E-1,-5.505862236E-1,7.207413635E-1
2.111142840E-1,-4.526176155E-1,-1.352523863E-1,-5.511971116E-1,7.259298655E-1
2.135599610E-1,-4.623914361E-1,-1.352523863E-1,-5.511971116E-1,7.320637295E-1
2.160048050E-1,-4.733870029E-1,-1.425827742E-1,-5.499753952E-1,7.395255488E-1
2.184489200E-1,-4.746087492E-1,-1.419719011E-1,-5.518079996E-1,7.415534734E-1
2.208938160E-1,-4.831608534E-1,-1.450262219E-1,-5.536405444E-1,7.489959063E-1
2.233394930E-1,-4.837717116E-1,-1.548000574E-1,-5.530297160E-1,7.508927976E-1
2.257843880E-1,-4.972107410E-1,-1.664064974E-1,-5.560840368E-1,7.642899315E-1
2.282284510E-1,-4.929346740E-1,-1.731260121E-1,-5.554731488E-1,7.625664745E-1
2.306733470E-1,-5.075954199E-1,-1.865650266E-1,-5.585274696E-1,7.774397429E-1
2.331190240E-1,-5.020976663E-1,-1.896193475E-1,-5.603600740E-1,7.759258830E-1
2.355639200E-1,-5.167583823E-1,-2.042801082E-1,-5.615817904E-1,7.900276550E-1
2.380080340E-1,-5.118714571E-1,-2.036692351E-1,-5.640252829E-1,7.884275906E-1
2.404529300E-1,-5.173692703E-1,-2.109996229E-1,-5.652469993E-1,7.947930378E-1
2.428986070E-1,-5.204235911E-1,-2.122213542E-1,-5.683013201E-1,7.992778039E-1
2.453434510E-1,-5.179801583E-1,-2.158865333E-1,-5.676904917E-1,7.982373920E-1
2.477875660E-1,-5.240888000E-1,-2.177191377E-1,-5.683013201E-1,8.031420071E-1
2.502324610E-1,-5.161475539E-1,-2.122213542E-1,-5.652469993E-1,7.943238450E-1
2.526781380E-1,-5.253105164E-1,-2.152756751E-1,-5.664687157E-1,8.019860103E-1
2.551230340E-1,-5.137040615E-1,-2.055018395E-1,-5.615817904E-1,7.883507952E-1
2.575670970E-1,-5.198127031E-1,-2.085561603E-1,-5.603600740E-1,7.922779379E-1
2.600119930E-1,-5.112606287E-1,-2.006149143E-1,-5.536405444E-1,7.798407701E-1
2.624576700E-1,-5.112606287E-1,-2.061126977E-1,-5.505862236E-1,7.791117149E-1
2.649025660E-1,-5.082063079E-1,-2.024475187E-1,-5.450884700E-1,7.722564919E-1
2.673466800E-1,-5.027084947E-1,-2.048909664E-1,-5.359255075E-1,7.628317563E-1
2.697915760E-1,-5.063737035E-1,-2.067235708E-1,-5.304276943E-1,7.619071474E-1
2.722372530E-1,-4.935455322E-1,-2.048909664E-1,-5.212647319E-1,7.465148500E-1
2.746821490E-1,-5.027084947E-1,-2.091670185E-1,-5.133234859E-1,7.483098779E-1
2.771262110E-1,-4.898803532E-1,-2.012257874E-1,-4.998845160E-1,7.282575831E-1
2.795711070E-1,-4.953781366E-1,-2.055018395E-1,-4.913324118E-1,7.273500142E-1
2.820167840E-1,-4.849934280E-1,-1.957280040E-1,-4.803368449E-1,7.101067253E-1
2.844616800E-1,-4.856043160E-1,-1.951171309E-1,-4.687304199E-1,7.025599284E-1
2.869057950E-1,-4.825499654E-1,-1.877867579E-1,-4.589565694E-1,6.919244671E-1
2.893506380E-1,-4.733870029E-1,-1.841215640E-1,-4.479610026E-1,6.772481560E-1
2.917963160E-1,-4.776630700E-1,-1.798455119E-1,-4.400197566E-1,6.738870845E-1
2.942412630E-1,-4.630022943E-1,-1.725151390E-1,-4.290241897E-1,6.543656112E-1
2.966853260E-1,-4.715544283E-1,-1.731260121E-1,-4.216938317E-1,6.558672752E-1
2.991302220E-1,-4.556719363E-1,-1.627413034E-1,-4.094765186E-1,6.338711736E-1
3.015758990E-1,-4.623914361E-1,-1.657956243E-1,-4.033678770E-1,6.356096864E-1
3.040207950E-1,-4.501741529E-1,-1.590761244E-1,-3.935940564E-1,6.187715754E-1
3.064648570E-1,-4.507850111E-1,-1.615195721E-1,-3.856528103E-1,6.148363916E-1
3.089097530E-1,-4.458980858E-1,-1.554109305E-1,-3.783224225E-1,6.050665382E-1
3.113554300E-1,-4.373459816E-1,-1.548000574E-1,-3.703811765E-1,5.936470174E-1
3.138003260E-1,-4.385677278E-1,-1.523566097E-1,-3.630508184E-1,5.893726200E-1
3.162444410E-1,-4.226852357E-1,-1.431936324E-1,-3.532769680E-1,5.691852431E-1
3.186893360E-1,-4.281830192E-1,-1.413610429E-1,-3.471683264E-1,5.690777532E-1
3.211350130E-1,-4.092462063E-1,-1.273111552E-1,-3.373945057E-1,5.454591095E-1
3.235799090E-1,-4.123005271E-1,-1.242568195E-1,-3.288423717E-1,5.418198845E-1
3.260239720E-1,-3.958071768E-1,-1.077634841E-1,-3.184576929E-1,5.193183916E-1
3.284688680E-1,-3.921419978E-1,-1.016548276E-1,-3.068512678E-1,5.081995189E-1
3.309145450E-1,-3.817572892E-1,-8.638320863E-2,-2.952448130E-1,4.902756226E-1
3.333594410E-1,-3.677074015E-1,-7.722024620E-2,-2.824166715E-1,4.700328456E-1
3.358035550E-1,-3.652639389E-1,-6.561380625E-2,-2.726428211E-1,4.604964978E-1
3.382483990E-1,-3.432728350E-1,-5.217479169E-2,-2.567603588E-1,4.318383147E-1
3.406940760E-1,-3.438836932E-1,-4.606614634E-2,-2.451539189E-1,4.248276453E-1
3.431389720E-1,-3.194490969E-1,-3.018365987E-2,-2.311040163E-1,3.954337431E-1
3.455830860E-1,-3.182273805E-1,-2.712933533E-2,-2.188867182E-1,3.871899559E-1
3.480279820E-1,-2.980688214E-1,-1.369031332E-2,-2.048368305E-1,3.619261998E-1
3.504736590E-1,-2.913493216E-1,-1.369031332E-2,-1.913978010E-1,3.488623942E-1
3.529185550E-1,-2.766885757E-1,-5.749071483E-3,-1.785696447E-1,3.293580692E-1
3.553626180E-1,-2.650821507E-1,-2.083883155E-3,-1.663523614E-1,3.129632524E-1
3.578075130E-1,-2.595843673E-1,-5.749071483E-3,-1.559676528E-1,3.028910766E-1
3.602531910E-1,-2.382040769E-1,-2.083883155E-3,-1.431394964E-1,2.779108495E-1
3.626980860E-1,-2.400366664E-1,-6.970800925E-3,-1.321439296E-1,2.740952597E-1
3.651422010E-1,-2.180455476E-1,-2.083883155E-3,-1.205375046E-1,2.491535539E-1
3.675870450E-1,-2.186564058E-1,-9.414259344E-3,-1.107636839E-1,2.452913487E-1
3.700327740E-1,-2.003304660E-1,-4.527342040E-3,-1.016007066E-1,2.246675233E-1
3.724776180E-1,-1.948326826E-1,-1.063598879E-2,-9.121601284E-2,2.153909456E-1
3.749217320E-1,-1.850588471E-1,-8.803395554E-3,-8.205303550E-2,2.026252138E-1
3.773666280E-1,-1.728415489E-1,-1.369031332E-2,-7.105746865E-2,1.873787330E-1
3.798123050E-1,-1.716198176E-1,-1.613377221E-2,-6.189449504E-2,1.831518193E-1
3.822572010E-1,-1.526830196E-1,-1.796636544E-2,-5.028806627E-2,1.617522315E-1
3.847012630E-1,-1.569590718E-1,-2.712933533E-2,-4.234682396E-2,1.648193088E-1
3.871461590E-1,-1.380222589E-1,-2.651847154E-2,-2.890780196E-2,1.434887950E-1
3.895918360E-1,-1.441309154E-1,-4.362268373E-2,-2.096656151E-2,1.520403105E-1
3.920367320E-1,-1.300810128E-1,-4.606614634E-2,-8.138401434E-3,1.382367293E-1
3.944808470E-1,-1.331353486E-1,-6.194862723E-2,1.635434572E-3,1.468513810E-1
3.969257430E-1,-1.294701546E-1,-6.988986582E-2,1.324186474E-2,1.477242745E-1
3.993714200E-1,-1.264158338E-1,-8.271802962E-2,2.607002296E-2,1.533064955E-1
4.018163160E-1,-1.313027442E-1,-9.249186516E-2,3.950905055E-2,1.653968585E-1
4.042603780E-1,-1.190854609E-1,-1.004330963E-1,5.600239709E-2,1.655428111E-1
4.067052740E-1,-1.270266920E-1,-1.144829839E-1,6.699796021E-2,1.836596329E-1
4.091509510E-1,-1.111442223E-1,-1.163155884E-1,8.349131048E-2,1.812543880E-1
4.115958470E-1,-1.160311401E-1,-1.285328716E-1,9.754119813E-2,1.987415656E-1
4.140399610E-1,-1.019812524E-1,-1.236459613E-1,1.134236753E-1,1.963502730E-1
4.164848050E-1,-1.007595211E-1,-1.315872073E-1,1.280844212E-1,2.094595263E-1
4.189305340E-1,-9.465087205E-2,-1.279220134E-1,1.451886594E-1,2.154125714E-1
4.213753780E-1,-8.609876782E-2,-1.285328716E-1,1.616819948E-1,2.237739135E-1
4.238194930E-1,-8.609876782E-2,-1.230351031E-1,1.757318825E-1,2.311543400E-1
4.262643880E-1,-7.082714885E-2,-1.138721257E-1,1.910035014E-1,2.333788413E-1
4.287100660E-1,-7.510320097E-2,-1.114286631E-1,2.038316727E-1,2.441396906E-1
4.311549610E-1,-5.738812685E-2,-9.615704417E-2,2.184924185E-1,2.455168247E-1
4.335990240E-1,-6.227504462E-2,-9.249186516E-2,2.325423062E-1,2.578930989E-1
4.360439200E-1,-4.761429131E-2,-7.722024620E-2,2.465921938E-1,2.627504467E-1
4.384895970E-1,-4.455996677E-2,-7.783110440E-2,2.575877607E-1,2.727539659E-1
4.409344930E-1,-3.784045577E-2,-7.233332098E-2,2.698050439E-1,2.818843223E-1
4.433786070E-1,-2.989921346E-2,-7.355505228E-2,2.814114690E-1,2.923982277E-1
4.458235030E-1,-2.989921346E-2,-7.722024620E-2,2.893527150E-1,3.009683091E-1
4.482691800E-1,-1.584932581E-2,-8.088542521E-2,2.985156775E-1,3.096857485E-1
4.507140760E-1,-2.379056811E-2,-9.676791728E-2,3.064569235E-1,3.222512481E-1
4.531581380E-1,-7.908083498E-3,-1.059308797E-1,3.137873113E-1,3.312798904E-1
4.556030340E-1,-1.646018960E-2,-1.273111552E-1,3.198959529E-1,3.446918751E-1
4.580487110E-1,-4.242895171E-3,-1.383067071E-1,3.266154528E-1,3.547173542E-1
4.604936070E-1,-7.908083498E-3,-1.621304452E-1,3.315023780E-1,3.691106144E-1
4.629376700E-1,-7.297218777E-3,-1.780129224E-1,3.370001614E-1,3.811967454E-1
4.653825660E-1,-4.853759892E-3,-1.987823248E-1,3.418870866E-1,3.955056910E-1
4.678282430E-1,-9.740677662E-3,-2.183299959E-1,3.455522656E-1,4.088633466E-1
4.702731380E-1,-2.410301007E-3,-2.366559356E-1,3.498283327E-1,4.223644206E-1
4.727172530E-1,-1.401673071E-2,-2.617014050E-1,3.516609073E-1,4.385766613E-1
4.751621490E-1,-5.777068436E-4,-2.775838673E-1,3.547152281E-1,4.504176175E-1
4.776078260E-1,-1.340586599E-2,-3.069053888E-1,3.571586907E-1,4.710976176E-1
4.800527220E-1,-4.242895171E-3,-3.227878809E-1,3.583804369E-1,4.823344854E-1
4.824967840E-1,-1.157327183E-2,-3.545528352E-1,3.608238995E-1,5.059995455E-1
4.849416800E-1,-1.157327183E-2,-3.753222525E-1,3.626564741E-1,5.220349146E-1
4.873873570E-1,-1.401673071E-2,-4.028111696E-1,3.632673323E-1,5.426015682E-1
4.898322530E-1,-2.134710923E-2,-4.254131615E-1,3.626564741E-1,5.594209285E-1
4.922763680E-1,-1.584932581E-2,-4.474042952E-1,3.632673323E-1,5.765283681E-1
4.947212630E-1,-2.928834781E-2,-4.718388617E-1,3.620456159E-1,5.954550753E-1
4.971669410E-1,-2.317970246E-2,-4.864996374E-1,3.626564741E-1,6.072387619E-1
4.996117840E-1,-3.478613123E-2,-5.091015697E-1,3.596021533E-1,6.242661226E-1
5.020558990E-1,-2.623402700E-2,-5.170428157E-1,3.602130115E-1,6.306939916E-1
5.045007950E-1,-3.295353800E-2,-5.335361958E-1,3.583804369E-1,6.435707773E-1
5.069464720E-1,-2.745575458E-2,-5.372013450E-1,3.565478325E-1,6.453413518E-1
5.093913680E-1,-2.317970246E-2,-5.420882702E-1,3.571586907E-1,6.495839604E-1
5.118354300E-1,-2.379056811E-2,-5.390339494E-1,3.541043699E-1,6.453785668E-1
5.142803260E-1,-1.279500127E-2,-5.317035913E-1,3.528826535E-1,6.382778300E-1
5.167260030E-1,-1.707105339E-2,-5.274274945E-1,3.516609073E-1,6.341423945E-1
5.191708990E-1,-5.777068436E-4,-5.084906816E-1,3.522717655E-1,6.185939733E-1
5.216150130E-1,-6.075489335E-3,-4.987169206E-1,3.504391909E-1,6.095597632E-1
5.240599090E-1,7.974399254E-3,-4.785583913E-1,3.486065865E-1,5.921218431E-1
5.265055860E-1,5.530940369E-3,-4.687845409E-1,3.498283327E-1,5.849524762E-1
5.289504820E-1,1.286131609E-2,-4.486260116E-1,3.467739820E-1,5.671709675E-1
5.313945450E-1,1.774823293E-2,-4.382413030E-1,3.455522656E-1,5.583697768E-1
5.338394410E-1,1.347218174E-2,-4.254131615E-1,3.406653404E-1,5.451703696E-1
5.362851180E-1,2.202428877E-2,-4.168610573E-1,3.382218778E-1,5.372636680E-1
5.387300130E-1,9.806993417E-3,-4.138067067E-1,3.302806616E-1,5.295445996E-1
5.411741280E-1,1.835909858E-2,-4.052546024E-1,3.241719902E-1,5.192839575E-1
5.436189720E-1,3.698346205E-3,-4.101415277E-1,3.150090277E-1,5.171657742E-1
5.460647010E-1,9.196128696E-3,-4.076980650E-1,3.046243191E-1,5.090169514E-1
5.485095970E-1,-4.242895171E-3,-4.193044901E-1,2.911853194E-1,5.105126324E-1
5.509536590E-1,-7.297218777E-3,-4.217479527E-1,2.789680064E-1,5.057150715E-1
5.533985550E-1,-1.218413655E-2,-4.339652658E-1,2.636964023E-1,5.079469437E-1
5.558442320E-1,-2.379056811E-2,-4.455716908E-1,2.465921938E-1,5.098115660E-1
5.582891280E-1,-2.134710923E-2,-4.535129368E-1,2.288771123E-1,5.084431290E-1
5.607331910E-1,-3.722959012E-2,-4.657302201E-1,2.081077248E-1,5.114679906E-1
5.631780860E-1,-2.989921346E-2,-4.706171453E-1,1.897817701E-1,5.083223197E-1
5.656237630E-1,-4.639256001E-2,-4.822235703E-1,1.684015095E-1,5.128848895E-1
5.680686590E-1,-3.906218335E-2,-4.797801077E-1,1.488538384E-1,5.038573917E-1
5.705127740E-1,-4.822515696E-2,-4.852778912E-1,1.286952943E-1,5.043637340E-1
5.729576700E-1,-4.639256001E-2,-4.785583913E-1,1.079258919E-1,4.927660720E-1
5.754033470E-1,-4.883601889E-2,-4.748931825E-1,8.959995210E-2,4.857330985E-1
5.778482430E-1,-5.433380231E-2,-4.632867575E-1,7.249574363E-2,4.720618758E-1
5.802923050E-1,-4.517083243E-2,-4.504586160E-1,5.783499032E-2,4.563970365E-1
5.827372010E-1,-5.372293666E-2,-4.406847656E-1,3.950905055E-2,4.457018977E-1
5.851828780E-1,-4.028391466E-2,-4.193044901E-1,2.545915730E-2,4.220038126E-1
5.876277740E-1,-4.944688454E-2,-4.070872068E-1,1.202013530E-2,4.102553741E-1
5.900718880E-1,-3.845132142E-2,-3.826526105E-1,4.137051292E-4,3.845798950E-1
5.925167840E-1,-4.272737354E-2,-3.692136109E-1,-1.485791244E-2,3.719745643E-1
5.949624610E-1,-3.539699689E-2,-3.453898728E-1,-2.646434307E-2,3.482060784E-1
5.974073050E-1,-3.417526558E-2,-3.301182687E-1,-3.684904054E-2,3.339219548E-1
5.998514200E-1,-3.600785881E-2,-3.130140305E-1,-4.845546931E-2,3.187824990E-1
6.022963160E-1,-2.684488893E-2,-2.971315682E-1,-5.578584969E-2,3.035125663E-1
6.047419930E-1,-3.661872447E-2,-2.885794640E-1,-6.922487915E-2,2.990169258E-1
6.071868880E-1,-2.256883681E-2,-2.751404345E-1,-7.594439387E-2,2.863200343E-1
6.096309510E-1,-3.539699689E-2,-2.739186883E-1,-8.449649811E-2,2.888322236E-1
6.120758470E-1,-2.379056811E-2,-2.592579424E-1,-9.365946054E-2,2.766817059E-1
6.145215240E-1,-2.989921346E-2,-2.629231215E-1,-1.046550274E-1,2.845614266E-1
6.169664200E-1,-2.623402700E-2,-2.519275546E-1,-1.138180047E-1,2.776873334E-1
6.194105340E-1,-2.440143004E-2,-2.507058382E-1,-1.229809672E-1,2.803090533E-1
6.218554300E-1,-2.562316135E-2,-2.445971817E-1,-1.321439296E-1,2.791887279E-1
6.243011070E-1,-1.584932581E-2,-2.397102565E-1,-1.419177651E-1,2.790212541E-1
6.267460030E-1,-2.317970246E-2,-2.354342043E-1,-1.547459215E-1,2.826886333E-1
6.291900660E-1,-6.075489335E-3,-2.256603688E-1,-1.632980257E-1,2.786139961E-1
6.316349610E-1,-1.340586599E-2,-2.262712419E-1,-1.761261970E-1,2.870519629E-1
6.340806380E-1,3.698346205E-3,-2.109996229E-1,-1.889543533E-1,2.832635986E-1
6.365255340E-1,1.865752041E-3,-2.097778916E-1,-2.005607784E-1,2.902324425E-1
6.389696490E-1,1.225045230E-2,-1.969497353E-1,-2.133889347E-1,2.906443003E-1
6.414144930E-1,2.080255747E-2,-1.908410788E-1,-2.262170911E-1,2.966938423E-1
6.438602220E-1,2.446774766E-2,-1.798455119E-1,-2.408778518E-1,3.016044070E-1
6.463050660E-1,4.096109420E-2,-1.694608182E-1,-2.537060380E-1,3.078336139E-1
6.487491800E-1,4.157195985E-2,-1.590761244E-1,-2.683667839E-1,3.147287275E-1
6.511940760E-1,6.295222044E-2,-1.383067071E-1,-2.799732089E-1,3.185541163E-1
6.536397530E-1,6.295222044E-2,-1.218133718E-1,-2.952448130E-1,3.255318405E-1
6.560846490E-1,8.860854059E-2,-9.310272336E-2,-3.050186634E-1,3.309924102E-1
6.585287110E-1,9.899324179E-2,-7.050073147E-2,-3.154033720E-1,3.380078433E-1
6.609736070E-1,1.234278306E-1,-3.384884819E-2,-3.221228719E-1,3.466169622E-1
6.634192840E-1,1.429755092E-1,1.581305172E-3,-3.263989389E-1,3.563436039E-1
6.658641800E-1,1.619123220E-1,4.922875017E-2,-3.294532597E-1,3.703761874E-1
6.683082950E-1,1.900120974E-1,1.011522561E-1,-3.257880509E-1,3.904794875E-1
6.707531910E-1,2.022293955E-1,1.561300755E-1,-3.202902675E-1,4.097062171E-1
6.731988680E-1,2.333834916E-1,2.196599990E-1,-3.092947006E-1,4.454004728E-1
6.756437630E-1,2.394921333E-1,2.728052139E-1,-3.007425964E-1,4.714077597E-1
6.780878260E-1,2.682027519E-1,3.357242942E-1,-2.842492759E-1,5.152098298E-1
6.805327220E-1,2.755331397E-1,3.778739572E-1,-2.671450377E-1,5.385849141E-1
6.829783990E-1,2.938590944E-1,4.218562245E-1,-2.469864935E-1,5.703666974E-1
6.854232950E-1,3.042437732E-1,4.438473582E-1,-2.262170911E-1,5.837284671E-1
6.878674090E-1,3.091306984E-1,4.615624249E-1,-2.066694200E-1,5.927173947E-1
6.903122530E-1,3.189045489E-1,4.609515667E-1,-1.852891594E-1,5.903461110E-1
6.927579820E-1,3.072980940E-1,4.475125372E-1,-1.626871675E-1,5.667157171E-1
6.952028260E-1,3.121850193E-1,4.322409034E-1,-1.400851756E-1,5.512853537E-1
6.976469410E-1,2.901938856E-1,3.943673074E-1,-1.193157732E-1,5.039586472E-1
7.000918360E-1,2.877504230E-1,3.601588905E-1,-9.793551266E-2,4.712813352E-1
7.025375130E-1,2.608723938E-1,3.070136607E-1,-7.838784158E-2,4.104344618E-1
7.049824090E-1,2.492659688E-1,2.605879307E-1,-5.945103988E-2,3.654777954E-1
7.074264720E-1,2.260531187E-1,2.019449323E-1,-4.112509638E-2,3.058971097E-1
7.098713680E-1,2.016185224E-1,1.451345086E-1,-2.585347742E-2,2.497648023E-1
7.123170450E-1,1.863469034E-1,8.649151027E-2,-1.119272411E-2,2.057455391E-1
7.147619410E-1,1.533602029E-1,2.235070802E-2,4.137051292E-4,1.549808928E-1
7.172060550E-1,1.411429197E-1,-3.445971385E-2,1.140926965E-2,1.457359499E-1
7.196509510E-1,1.167083159E-1,-9.615704417E-2,1.996137574E-2,1.525302090E-1
7.220966280E-1,9.960410744E-2,-1.523566097E-1,2.912434749E-2,1.843413745E-1
7.245415240E-1,7.700211555E-2,-2.067235708E-1,3.217867017E-2,2.229336837E-1
7.269855860E-1,5.684357882E-2,-2.537601590E-1,3.584385663E-2,2.625075100E-1
7.294304820E-1,3.546331078E-2,-2.959098220E-1,3.889818490E-2,3.005550498E-1
7.318761590E-1,1.835909858E-2,-3.337834477E-1,4.011991248E-2,3.366868781E-1
7.343210550E-1,1.865752041E-3,-3.637158275E-1,4.011991248E-2,3.659266205E-1
7.367651700E-1,-1.218413655E-2,-3.875395358E-1,3.889818490E-2,3.896773200E-1
7.392100130E-1,-2.440143004E-2,-4.009785652E-1,4.195250571E-2,4.039050040E-1
7.416557430E-1,-3.417526558E-2,-4.070872068E-1,4.378510267E-2,4.108589514E-1
7.441005860E-1,-3.967304900E-2,-4.058654904E-1,4.683942348E-2,4.104810333E-1
7.465447010E-1,-4.455996677E-2,-3.979242444E-1,5.172634125E-2,4.037386646E-1
7.489895970E-1,-4.700342566E-2,-3.820417523E-1,5.905672163E-2,3.894263973E-1
7.514352740E-1,-4.578169435E-2,-3.576071560E-1,6.699796021E-2,3.666981978E-1
7.538801700E-1,-4.578169435E-2,-3.246204853E-1,7.982611656E-2,3.374116653E-1
7.563242320E-1,-4.578169435E-2,-2.836925387E-1,9.448686242E-2,3.024982434E-1
7.587691280E-1,-4.394910112E-2,-2.384885252E-1,1.122019440E-1,2.672032491E-1
7.612148050E-1,-4.272737354E-2,-1.890084893E-1,1.311387420E-1,2.339812110E-1
7.636597010E-1,-4.272737354E-2,-1.364741176E-1,1.549624950E-1,2.108653316E-1
7.661038160E-1,-4.394910112E-2,-8.699408174E-2,1.787862182E-1,2.036271238E-1
7.685487110E-1,-4.639256001E-2,-3.873576596E-2,2.038316727E-1,2.126031043E-1
7.709943880E-1,-4.700342566E-2,5.246491637E-3,2.288771123E-1,2.337126018E-1
7.734392840E-1,-5.066861212E-2,4.800702631E-2,2.557551563E-1,2.651088131E-1
7.758833470E-1,-5.555552989E-2,8.649151027E-2,2.844657898E-1,3.024698065E-1
7.783282430E-1,-6.227504462E-2,1.243651062E-1,3.095112443E-1,3.393259070E-1
7.807739200E-1,-7.143801451E-2,1.555192173E-1,3.357784450E-1,3.768776738E-1
7.832188160E-1,-8.060098439E-2,1.860624552E-1,3.608238995E-1,4.138956902E-1
7.856629300E-1,-9.404000640E-2,2.147730887E-1,3.834258914E-1,4.494289895E-1
7.881077740E-1,-1.093116254E-1,2.404294163E-1,4.041952789E-1,4.828345049E-1
7.905535030E-1,-1.264158338E-1,2.636422515E-1,4.243538082E-1,5.153293649E-1
7.929983470E-1,-1.435200423E-1,2.856333852E-1,4.426797628E-1,5.460309567E-1
7.954424610E-1,-1.594025344E-1,3.045701981E-1,4.597839713E-1,5.740849012E-1
7.978873570E-1,-1.740632802E-1,3.228961229E-1,4.774990380E-1,6.021339245E-1
8.003330340E-1,-1.875023097E-1,3.406112194E-1,4.903272092E-1,6.257746328E-1
8.027779300E-1,-1.997195929E-1,3.583262861E-1,5.025445223E-1,6.487192305E-1
8.052219930E-1,-2.094934285E-1,3.760413527E-1,5.147618055E-1,6.710248222E-1
8.076668880E-1,-2.204889953E-1,3.943673074E-1,5.275899768E-1,6.946165517E-1
8.101125660E-1,-2.259867787E-1,4.114715159E-1,5.373638272E-1,7.135395682E-1
8.125574610E-1,-2.351497561E-1,4.297974706E-1,5.453050733E-1,7.330613183E-1
8.150015760E-1,-2.424801290E-1,4.456799328E-1,5.526354313E-1,7.502220574E-1
8.174464720E-1,-2.504213750E-1,4.658384621E-1,5.587440729E-1,7.693577041E-1
8.198921490E-1,-2.589734793E-1,4.853861630E-1,5.654636025E-1,7.889335054E-1
8.223370450E-1,-2.699690461E-1,5.043230057E-1,5.721831322E-1,8.090849873E-1
8.247811070E-1,-2.791320384E-1,5.220380425E-1,5.764591694E-1,8.262829943E-1
8.272260030E-1,-2.907384634E-1,5.385314226E-1,5.825678110E-1,8.449439045E-1
8.296716800E-1,-3.023448884E-1,5.525813103E-1,5.874547362E-1,8.613138819E-1
8.321165760E-1,-3.163947761E-1,5.629659891E-1,5.929524899E-1,8.767148992E-1
8.345606910E-1,-3.316663802E-1,5.733506680E-1,5.978394151E-1,8.922698820E-1
8.370055340E-1,-3.457162678E-1,5.794593692E-1,6.045589447E-1,9.059715316E-1
8.394512630E-1,-3.603770435E-1,5.837354064E-1,6.118893027E-1,9.192535869E-1
8.418961590E-1,-3.768703938E-1,5.880114436E-1,6.192197204E-1,9.333926364E-1
8.443402220E-1,-3.945854604E-1,5.922874808E-1,6.259391904E-1,9.477879592E-1
8.467851180E-1,-4.116896689E-1,5.983961225E-1,6.344913244E-1,9.644405340E-1
8.492307950E-1,-4.300156236E-1,6.038939357E-1,6.430433989E-1,9.813797098E-1
8.516756910E-1,-4.495632946E-1,6.100025773E-1,6.515955329E-1,9.993933353E-1
8.541198050E-1,-4.678892195E-1,6.136677861E-1,6.607584953E-1,1.015928276E0
8.565646490E-1,-4.831608534E-1,6.118351817E-1,6.680888534E-1,1.026708048E0
8.590103260E-1,-4.941564202E-1,6.026722193E-1,6.748083830E-1,1.030907719E0
8.614552220E-1,-5.014867783E-1,5.904549360E-1,6.803061366E-1,1.030991009E0
8.638993360E-1,-5.106497407E-1,5.733506680E-1,6.870256662E-1,1.030290450E0
8.663442320E-1,-5.210344791E-1,5.550247431E-1,6.943560243E-1,1.030368712E0
8.687899090E-1,-5.301974416E-1,5.305901766E-1,6.998538375E-1,1.025880430E0
8.712348050E-1,-5.399712920E-1,5.000469089E-1,7.059624791E-1,1.019803378E0
8.736788680E-1,-5.515776873E-1,4.633950293E-1,7.126820087E-1,1.013355093E0
8.761237630E-1,-5.595189333E-1,4.175801575E-1,7.175689340E-1,1.001169216E0
8.785694410E-1,-5.686818957E-1,3.638240695E-1,7.236775756E-1,9.896849425E-1
8.810143360E-1,-5.790666342E-1,3.039593399E-1,7.261210084E-1,9.772211448E-1
8.834584510E-1,-5.857861042E-1,2.306555659E-1,7.273427248E-1,9.619640270E-1
8.859033470E-1,-5.912839174E-1,1.487997025E-1,7.285645008E-1,9.500338175E-1
8.883490240E-1,-5.980033875E-1,6.144605204E-2,7.255101800E-1,9.422041658E-1
8.907939200E-1,-6.053338051E-1,-2.835106663E-2,7.206232548E-1,9.415575786E-1
8.932379820E-1,-6.181619763E-1,-1.138721257E-1,7.126820087E-1,9.502666655E-1
8.956828780E-1,-6.395422220E-1,-1.896193475E-1,7.022972703E-1,9.686027083E-1
8.981285550E-1,-6.658093929E-1,-2.513166964E-1,6.931343079E-1,9.934270976E-1
9.005734510E-1,-6.969634891E-1,-2.965206802E-1,6.784735918E-1,1.016862347E0
9.030175130E-1,-7.287284732E-1,-3.203444183E-1,6.638128161E-1,1.036490805E0
9.054624090E-1,-7.568282485E-1,-3.270639181E-1,6.467086077E-1,1.047851052E0
9.079080860E-1,-7.763758898E-1,-3.148466349E-1,6.277717948E-1,1.046893190E0
9.103529820E-1,-7.904257774E-1,-2.836925387E-1,6.070023775E-1,1.036197979E0
9.127970970E-1,-7.977561951E-1,-2.317690253E-1,5.868438482E-1,1.017112349E0
9.152419930E-1,-7.959235907E-1,-1.676282287E-1,5.672962070E-1,9.916746299E-1
9.176876700E-1,-7.837063074E-1,-9.127013385E-2,5.514137149E-1,9.625917611E-1
9.201325660E-1,-7.611042857E-1,-1.430117711E-2,5.367529392E-1,9.314440269E-1
9.225766280E-1,-7.275067568E-1,5.655913055E-2,5.275899768E-1,9.004533303E-1
9.250215240E-1,-6.865788102E-1,1.152021438E-1,5.233139396E-1,8.709302360E-1
9.274672010E-1,-6.413748264E-1,1.616278589E-1,5.233139396E-1,8.434113540E-1
9.299120970E-1,-5.986142755E-1,1.976688802E-1,5.275899768E-1,8.220481863E-1
9.323562110E-1,-5.650167465E-1,2.214926034E-1,5.343095064E-1,8.085725359E-1
9.348011070E-1,-5.381386876E-1,2.276012450E-1,5.440833569E-1,7.983872952E-1
9.372467840E-1,-5.222561955E-1,2.104970366E-1,5.514137149E-1,7.881101580E-1
9.396916280E-1,-5.167583823E-1,1.671256423E-1,5.538571477E-1,7.757112517E-1
9.421357430E-1,-5.137040615E-1,9.015668929E-2,5.544680357E-1,7.612193469E-1
9.445806380E-1,-5.173692703E-1,-1.735549979E-2,5.495811105E-1,7.549911074E-1
9.470263160E-1,-5.259213448E-1,-1.450262219E-1,5.422507524E-1,7.691955177E-1
9.494712110E-1,-5.356951952E-1,-2.855251431E-1,5.275899768E-1,8.042668296E-1
9.519153260E-1,-5.479124784E-1,-4.339652658E-1,5.104857683E-1,8.655227643E-1
9.543601700E-1,-5.576863289E-1,-5.836271048E-1,4.884946048E-1,9.435367602E-1
9.568058990E-1,-5.650167465E-1,-7.247368097E-1,4.610056877E-1,1.028111673E0
9.592507430E-1,-5.741797090E-1,-8.481315374E-1,4.274081290E-1,1.109814017E0
9.616948570E-1,-5.808991790E-1,-9.525893927E-1,3.870910704E-1,1.180978367E0
9.641397530E-1,-5.888404250E-1,-1.030780077E0,3.412761986E-1,1.235196364E0
9.665854300E-1,-5.931165218E-1,-1.075984001E0,2.893527150E-1,1.262241567E0
9.690303260E-1,-5.949490666E-1,-1.087590456E0,2.337640375E-1,1.261532012E0
9.714743880E-1,-5.906730294E-1,-1.068042755E0,1.732884347E-1,1.232736321E0
9.739192840E-1,-5.778448582E-1,-1.017951965E0,1.115910858E-1,1.175833089E0
9.763649610E-1,-5.552428961E-1,-9.446481466E-1,4.683942348E-2,1.096744604E0
9.788098570E-1,-5.265322328E-1,-8.536292911E-1,-2.035569586E-2,1.003161758E0
9.812539720E-1,-4.923238158E-1,-7.424519062E-1,-8.571822941E-2,8.949665846E-1
9.836988680E-1,-4.507850111E-1,-6.221115589E-1,-1.504698694E-1,7.828608430E-1
9.861445450E-1,-4.043592811E-1,-4.944408536E-1,-2.146106660E-1,6.738218784E-1
9.885894410E-1,-3.603770435E-1,-3.612723649E-1,-2.732537091E-1,5.788410184E-1
9.910335030E-1,-3.127295971E-1,-2.299364209E-1,-3.282315135E-1,5.083369798E-1
9.934783990E-1,-2.638604045E-1,-1.053200215E-1,-3.777115643E-1,4.726316174E-1
9.959240760E-1,-2.204889953E-1,1.502032764E-2,-4.247481525E-1,4.788026737E-1
9.983689720E-1,-1.771176010E-1,1.237542480E-1,-4.668978155E-1,5.144699492E-1
1.000813086E0,-1.398548633E-1,2.227143198E-1,-5.035496950E-1,5.680874461E-1
1.003257930E0,-1.032029763E-1,3.027375937E-1,-5.371472239E-1,6.251624150E-1
1.005703659E0,-7.143801451E-2,3.711544573E-1,-5.646361113E-1,6.794652009E-1
1.008148503E0,-3.967304900E-2,4.212453663E-1,-5.890707374E-1,7.252764598E-1
1.010592618E0,-1.157327183E-2,4.560646415E-1,-6.080075502E-1,7.601329351E-1
1.013037513E0,1.286131609E-2,4.792775214E-1,-6.226682663E-1,7.858677534E-1
1.015483191E0,3.301985189E-2,4.939382374E-1,-6.342747211E-1,8.045928877E-1
1.017928086E0,4.890233651E-2,5.012686849E-1,-6.440485716E-1,8.175942120E-1
1.020372149E0,6.539568305E-2,4.951599538E-1,-6.538223624E-1,8.227658579E-1
1.022817045E0,8.066730201E-2,4.768340290E-1,-6.648179293E-1,8.221075257E-1
1.025262722E0,9.899324179E-2,4.450690746E-1,-6.770352721E-1,8.162492896E-1
1.027707618E0,1.148757264E-1,4.090280533E-1,-6.898633838E-1,8.101924890E-1
1.030151732E0,1.222060993E-1,3.735978901E-1,-7.039132714E-1,8.062280124E-1
1.032596628E0,1.203735098E-1,3.375568986E-1,-7.228500843E-1,8.068126710E-1
1.035042305E0,1.112105399E-1,3.045701981E-1,-7.436195016E-1,8.112340925E-1
1.037487201E0,1.014367044E-1,2.654748559E-1,-7.656106353E-1,8.166553428E-1
1.039931263E0,9.349545836E-2,2.221034616E-1,-7.900452018E-1,8.259798843E-1
1.042376159E0,8.738680929E-2,1.726234257E-1,-8.163124323E-1,8.389286553E-1
1.044821836E0,8.494335413E-2,1.225325167E-1,-8.425796032E-1,8.556693163E-1
1.047266732E0,8.494335413E-2,7.121989131E-2,-8.700684905E-1,8.771013764E-1
1.049710847E0,8.738680929E-2,1.868551783E-2,-8.969465494E-1,9.013871064E-1
1.052155743E0,9.044113755E-2,-3.629231080E-2,-9.232137203E-1,9.283427732E-1
1.054601420E0,9.288459271E-2,-8.882667124E-2,-9.470374584E-1,9.557184066E-1
1.057046263E0,9.471718967E-2,-1.444153637E-1,-9.684177041E-1,9.836971042E-1
1.059490378E0,9.716064483E-2,-2.036692351E-1,-9.879654050E-1,1.013408600E0
1.061935274E0,9.960410744E-2,-2.592579424E-1,-1.003237128E0,1.040970890E0
1.064380951E0,1.008258387E-1,-3.105705976E-1,-1.013621807E0,1.064917421E0
1.066825847E0,1.014367044E-1,-3.514985144E-1,-1.018508792E0,1.082220296E0
1.069269909E0,1.063236222E-1,-3.863178194E-1,-1.019119620E0,1.095057519E0
1.071714805E0,1.130431294E-1,-4.138067067E-1,-1.014232635E0,1.101218679E0
1.074160482E0,1.289256215E-1,-4.357978404E-1,-1.003847957E0,1.101931166E0
1.076605378E0,1.509167552E-1,-4.480151534E-1,-9.910197258E-1,1.098004345E0
1.079049493E0,1.765730679E-1,-4.529020488E-1,-9.720829129E-1,1.086850267E0
1.081494388E0,2.010076642E-1,-4.455716908E-1,-9.500917792E-1,1.068462728E0
1.083940066E0,2.254422456E-1,-4.266348779E-1,-9.274897575E-1,1.045504077E0
1.086384961E0,2.449899167E-1,-3.979242444E-1,-9.012225866E-1,1.015167924E0
1.088829024E0,2.608723938E-1,-3.661592603E-1,-8.743445277E-1,9.831609039E-1
1.091273920E0,2.779766023E-1,-3.343943059E-1,-8.480773568E-1,9.530612501E-1
1.093719597E0,2.895830274E-1,-3.062945306E-1,-8.279188275E-1,9.290448074E-1
1.096164493E0,2.993568778E-1,-2.830816805E-1,-8.120363355E-1,9.105782714E-1
1.098608607E0,3.085198402E-1,-2.696426511E-1,-7.967647314E-1,8.959496014E-1
1.101053503E0,3.164610863E-1,-2.665883303E-1,-7.863800526E-1,8.886003286E-1
1.103499180E0,3.207371235E-1,-2.739186883E-1,-7.790496349E-1,8.859018478E-1
1.105944076E0,3.213479817E-1,-2.879685760E-1,-7.729409933E-1,8.852277702E-1
1.108388138E0,3.195154071E-1,-3.099597096E-1,-7.680540681E-1,8.877342893E-1
1.110833034E0,3.134067655E-1,-3.374486268E-1,-7.643889189E-1,8.924045023E-1
1.113278711E0,3.048546314E-1,-3.692136109E-1,-7.570585012E-1,8.957637027E-1
1.115723607E0,2.963025272E-1,-4.052546024E-1,-7.533933520E-1,9.053331007E-1
1.118167722E0,2.877504230E-1,-4.376304448E-1,-7.497281432E-1,9.145561770E-1
1.120612566E0,2.816417813E-1,-4.700062871E-1,-7.460629344E-1,9.256553921E-1
1.123058243E0,2.749222815E-1,-4.962734580E-1,-7.436195016E-1,9.353285889E-1
1.125503138E0,2.706462145E-1,-5.188754201E-1,-7.430086136E-1,9.458027674E-1
1.127947253E0,2.651484311E-1,-5.329253078E-1,-7.442303896E-1,9.529910529E-1
1.130392149E0,2.614832520E-1,-5.378122330E-1,-7.460629344E-1,9.561513432E-1
1.132837826E0,2.559854686E-1,-5.292600989E-1,-7.460629344E-1,9.498708936E-1
1.135282722E0,2.486551106E-1,-5.042146444E-1,-7.423977852E-1,9.312444594E-1
1.137726784E0,2.468225062E-1,-4.669519663E-1,-7.356782556E-1,9.056423047E-1
1.140171680E0,2.504876852E-1,-4.241914153E-1,-7.228500843E-1,8.747540692E-1
1.142617357E0,2.639267147E-1,-3.765439689E-1,-7.045241594E-1,8.413066994E-1
1.145062253E0,2.853069901E-1,-3.215661347E-1,-6.819221377E-1,8.061157854E-1
1.147506368E0,3.121850193E-1,-2.592579424E-1,-6.538223624E-1,7.695179326E-1
1.149951263E0,3.402847946E-1,-1.841215640E-1,-6.232791543E-1,7.336016603E-1
1.152396941E0,3.683845699E-1,-9.676791728E-2,-5.909033418E-1,7.030206117E-1
1.154841836E0,3.946517706E-1,-3.305612598E-3,-5.585274696E-1,6.838961043E-1
1.157285899E0,4.172537625E-1,9.443274140E-2,-5.267625451E-1,6.785993103E-1
1.159730795E0,4.319145083E-1,1.964471489E-1,-4.931649864E-1,6.843634478E-1
1.162176472E0,4.398557544E-1,2.996832728E-1,-4.650652111E-1,7.068018104E-1
1.164621368E0,4.392448962E-1,4.004759490E-1,-4.363545775E-1,7.373753331E-1
1.167065482E0,4.319145083E-1,4.866078794E-1,-4.082548022E-1,7.681206639E-1
1.169510326E0,4.239732623E-1,5.483052731E-1,-3.838202059E-1,7.922814841E-1
1.171956055E0,4.178646207E-1,5.764050484E-1,-3.544987142E-1,7.953131203E-1
1.174400899E0,4.141994417E-1,5.764050484E-1,-3.251771927E-1,7.807330939E-1
1.176845013E0,4.087016582E-1,5.538030267E-1,-2.921904922E-1,7.477366659E-1
1.179289909E0,4.007604122E-1,5.195946097E-1,-2.555386126E-1,7.041927641E-1
1.181735586E0,3.885430992E-1,4.811100662E-1,-2.176649868E-1,6.555994831E-1
1.184180482E0,3.720497787E-1,4.407930374E-1,-1.797913760E-1,6.041891083E-1
1.186624545E0,3.512803614E-1,4.023085535E-1,-1.413069069E-1,5.524651179E-1
1.189069441E0,3.299000859E-1,3.668783903E-1,-1.052659005E-1,5.044945290E-1
1.191515118E0,3.042437732E-1,3.393894732E-1,-7.350093126E-2,4.616837391E-1
1.193960013E0,2.718679607E-1,3.283939064E-1,-4.723374173E-2,4.289356270E-1
1.196404128E0,2.303291708E-1,3.265613317E-1,-2.585347742E-2,4.004525348E-1
1.198849024E0,1.912338287E-1,3.265613317E-1,-7.527535781E-3,3.785093716E-1
1.201294701E0,1.533602029E-1,3.216744065E-1,7.133217063E-3,3.564332454E-1
1.203739597E0,1.203735098E-1,3.100679815E-1,1.935051195E-2,3.331761956E-1
1.206183659E0,9.654978663E-2,2.844116688E-1,2.851348184E-2,3.017032935E-1
1.208628555E0,8.005643636E-2,2.526466846E-1,3.706558794E-2,2.676064986E-1
1.211074232E0,7.028260082E-2,2.117187679E-1,4.500683025E-2,2.275743734E-1
1.213519128E0,5.928703398E-2,1.775103360E-1,5.539153144E-2,1.951745208E-1
1.215963243E0,5.928703398E-2,1.542974859E-1,6.699796021E-2,1.783574872E-1
1.218408086E0,4.401541874E-2,1.365824044E-1,7.677179575E-2,1.627452577E-1
1.220853816E0,4.157195985E-2,1.451345086E-1,8.715648949E-2,1.743229965E-1
1.223298659E0,1.408304740E-2,1.628495902E-1,9.631946683E-2,1.897254884E-1
1.225742774E0,1.254887320E-3,2.080535740E-1,1.060933024E-1,2.335458267E-1
1.228187670E0,-2.623402700E-2,2.508141100E-1,1.122019440E-1,2.760166991E-1
1.230633347E0,-4.517083243E-2,3.027375937E-1,1.170888692E-1,3.277197858E-1
1.233078243E0,-6.105331331E-2,3.381677568E-1,1.231975108E-1,3.650514559E-1
1.235522305E0,-7.510320097E-2,3.644349277E-1,1.286952943E-1,3.937204415E-1
1.237967201E0,-7.693579793E-2,3.797065616E-1,1.360256821E-1,4.106083001E-1
1.240412930E0,-9.404000640E-2,3.778739572E-1,1.415234655E-1,4.143200956E-1
1.242857774E0,-9.220741689E-2,3.809282780E-1,1.506864280E-1,4.198987500E-1
1.245301888E0,-1.123659536E-1,3.748196363E-1,1.622928679E-1,4.236211070E-1
1.247746784E0,-1.178637370E-1,3.839825988E-1,1.787862182E-1,4.396578311E-1
1.250192461E0,-1.410765797E-1,3.888695240E-1,1.946686953E-1,4.571848740E-1
1.252637357E0,-1.545156091E-1,4.108606577E-1,2.166598290E-1,4.895130591E-1
1.255081420E0,-1.710089594E-1,4.310191870E-1,2.410944104E-1,5.226357417E-1
1.257526316E0,-1.868914366E-1,4.548429251E-1,2.655289769E-1,5.588525147E-1
1.259971993E0,-1.875023097E-1,4.817209542E-1,2.991265357E-1,5.972343578E-1
1.262416888E0,-2.015521973E-1,5.067664385E-1,3.308915198E-1,6.379065051E-1
1.264861003E0,-1.917783618E-1,5.440291762E-1,3.650999367E-1,6.826746285E-1
1.267305899E0,-1.997195929E-1,5.739615560E-1,3.993083537E-1,7.271636300E-1
1.269751576E0,-1.881131679E-1,6.209981441E-1,4.371819794E-1,7.824022892E-1
1.272196472E0,-1.972761452E-1,6.649804115E-1,4.738338590E-1,8.400210421E-1
1.274640534E0,-2.015521973E-1,7.297320366E-1,5.141509771E-1,9.151411699E-1
1.277085430E0,-2.113260329E-1,7.889859676E-1,5.538571477E-1,9.868714655E-1
1.279531107E0,-2.296519727E-1,8.512941599E-1,5.905090570E-1,1.061198719E0
1.281976003E0,-2.382040769E-1,9.050502181E-1,6.308261156E-1,1.128626895E0
1.284420118E0,-2.644712627E-1,9.417021275E-1,6.674780250E-1,1.184176870E0
1.286864961E0,-2.699690461E-1,9.710236788E-1,7.065733671E-1,1.230859941E0
1.289310691E0,-2.980688214E-1,9.734671116E-1,7.389491796E-1,1.257986141E0
1.291755534E0,-3.090643883E-1,9.722453356E-1,7.743793130E-1,1.280798622E0
1.294199649E0,-3.414402306E-1,9.465890527E-1,8.073660135E-1,1.290136483E0
1.296644545E0,-3.585444391E-1,9.062719941E-1,8.391309977E-1,1.286088595E0
1.299090222E0,-3.744269311E-1,8.372442722E-1,8.690633774E-1,1.263504908E0
1.301535118E0,-3.927528560E-1,7.523340583E-1,8.977739811E-1,1.235418740E0
1.303979180E0,-4.068027437E-1,6.631478071E-1,9.264846444E-1,1.209804646E0
1.306424076E0,-4.526176155E-1,5.861788392E-1,9.509192109E-1,1.205286556E0
1.308869753E0,-4.984324574E-1,5.220380425E-1,9.741321206E-1,1.212391035E0
1.311314649E0,-5.497450829E-1,4.646167457E-1,9.942906499E-1,1.227478013E0
1.313758763E0,-6.053338051E-1,4.090280533E-1,1.012616396E0,1.248649242E0
1.316203659E0,-6.597007513E-1,3.509958982E-1,1.026666284E0,1.269821586E0
1.318649336E0,-7.036830187E-1,2.941854894E-1,1.035218477E0,1.285842988E0
1.321094232E0,-7.391131520E-1,2.300447077E-1,1.038883686E0,1.295564793E0
1.323538295E0,-7.666020989E-1,1.677365154E-1,1.040716171E0,1.303420295E0
1.325983191E0,-7.904257774E-1,1.078717709E-1,1.040105343E0,1.310812097E0
1.328428868E0,-8.124169111E-1,5.411566794E-2,1.037051082E0,1.318493341E0
1.330873763E0,-8.289102912E-1,-2.512880601E-4,1.033385873E0,1.324756089E0
1.333317878E0,-8.429601789E-1,-5.339651927E-2,1.029720664E0,1.331824950E0
1.335762774E0,-8.557883501E-1,-1.077634841E-1,1.027277231E0,1.341374362E0
1.338208451E0,-8.698382378E-1,-1.590761244E-1,1.024222851E0,1.353128309E0
1.340653295E0,-8.863315582E-1,-2.061126977E-1,1.021168590E0,1.367790687E0
1.343097409E0,-9.009923339E-1,-2.555927634E-1,1.018725157E0,1.383804824E0
1.345542305E0,-9.156530499E-1,-3.069053888E-1,1.015670776E0,1.401498681E0
1.347987982E0,-9.315355420E-1,-3.588289022E-1,1.010783911E0,1.420633929E0
1.350432878E0,-9.455854297E-1,-4.064763486E-1,1.006507754E0,1.439587679E0
1.352876941E0,-9.559701681E-1,-4.571781158E-1,1.002231836E0,1.458547032E0
1.355321836E0,-9.626896381E-1,-5.091015697E-1,9.942906499E-1,1.474642209E0
1.357767513E0,-9.639113545E-1,-5.604141951E-1,9.845167994E-1,1.487434872E0
1.360212409E0,-9.669656754E-1,-6.001204252E-1,9.753538370E-1,1.498826958E0
1.362656524E0,-9.736852050E-1,-6.251658797E-1,9.661908746E-1,1.507454829E0
1.365101420E0,-9.816264510E-1,-6.337180138E-1,9.558061361E-1,1.509554365E0
1.367547097E0,-9.932329059E-1,-6.263875961E-1,9.448105693E-1,1.507162910E0
1.369991993E0,-1.000563264E0,-6.068399549E-1,9.350367785E-1,1.497890301E0
1.372436055E0,-9.993414879E-1,-5.848488212E-1,9.222086072E-1,1.480270336E0
1.374880951E0,-9.883459806E-1,-5.646902919E-1,9.106021523E-1,1.457703393E0
1.377326628E0,-9.681874514E-1,-5.457534790E-1,9.014391899E-1,1.431022856E0
1.379771524E0,-9.400876760E-1,-5.304818153E-1,8.941088319E-1,1.401644177E0
1.382215638E0,-9.022140503E-1,-5.243731737E-1,8.892219067E-1,1.371011677E0
1.384660534E0,-8.576208949E-1,-5.365905166E-1,8.861675858E-1,1.344892550E0
1.387106211E0,-8.105843067E-1,-5.738532543E-1,8.794480562E-1,1.326568264E0
1.389551107E0,-7.666020989E-1,-6.294419169E-1,8.757828474E-1,1.323205011E0
1.391995170E0,-7.311719060E-1,-6.996913552E-1,8.684524894E-1,1.333562925E0
1.394440066E0,-7.061264515E-1,-7.876558900E-1,8.568460941E-1,1.361323472E0
1.396885743E0,-6.853570938E-1,-9.006658792E-1,8.391309977E-1,1.408919516E0
1.399330638E0,-6.688637137E-1,-1.028336644E0,8.165289760E-1,1.473626306E0
1.401774753E0,-6.566464305E-1,-1.169446349E0,7.847640514E-1,1.553912454E0
1.404219597E0,-6.438182592E-1,-1.322162509E0,7.462795377E-1,1.649105454E0
1.406665274E0,-6.285466552E-1,-1.479154825E0,7.029081583E-1,1.754152152E0
1.409110170E0,-6.120532751E-1,-1.625762343E0,6.503738165E-1,1.854911995E0
1.411554284E0,-5.992251635E-1,-1.754654765E0,5.886764526E-1,1.945359634E0
1.413999180E0,-5.851752758E-1,-1.865221262E0,5.184270144E-1,2.022435915E0
1.416444857E0,-5.723471045E-1,-1.949520588E0,4.390145838E-1,2.078688417E0
1.418889753E0,-5.631841421E-1,-1.995946288E0,3.486065865E-1,2.102975158E0
1.421333816E0,-5.552428961E-1,-1.999000669E0,2.508682311E-1,2.089792625E0
1.423778711E0,-5.344734788E-1,-1.972122550E0,1.415234655E-1,2.048159697E0
1.426224388E0,-4.990433455E-1,-1.907981753E0,2.423742972E-2,1.972314905E0
1.428669284E0,-4.544501901E-1,-1.801691294E0,-1.009898484E-1,1.860864166E0
1.431113399E0,-4.031375647E-1,-1.652029514E0,-2.292714268E-1,1.715892421E0
1.433558295E0,-3.481597304E-1,-1.457774520E0,-3.551095724E-1,1.540267690E0
1.436003972E0,-2.889058590E-1,-1.230532765E0,-4.730064571E-1,1.349597196E0
1.438448868E0,-2.253759205E-1,-9.733587503E-1,-5.835729241E-1,1.157056144E0
1.440892930E0,-1.563481987E-1,-6.972479224E-1,-6.788678169E-1,9.856271797E-1
1.443337826E0,-7.876839489E-2,-4.162501693E-1,-7.613345981E-1,8.712628958E-1
1.445783503E0,3.698346205E-3,-1.383067071E-1,-8.309731483E-1,8.424124858E-1
1.448228399E0,9.044113755E-2,1.280303001E-1,-8.853400946E-1,8.991098043E-1
1.450672513E0,1.753513366E-1,3.748196363E-1,-9.287115335E-1,1.016731510E0
1.453117357E0,2.547637522E-1,5.965635777E-1,-9.616982341E-1,1.160024209E0
1.455563034E0,3.219588697E-1,7.908185124E-1,-9.843001962E-1,1.303034270E0
1.458007930E0,3.824344575E-1,9.545302987E-1,-9.959066510E-1,1.431507689E0
1.460452045E0,4.313036501E-1,1.087087870E0,-1.004458904E0,1.541661625E0
1.462896941E0,4.710098505E-1,1.188491464E0,-1.005069733E0,1.626200297E0
1.465342618E0,5.039965510E-1,1.261184335E0,-1.005680561E0,1.689968000E0
1.467787513E0,5.308746099E-1,1.307610035E0,-1.005069733E0,1.732581029E0
1.470231576E0,5.546982884E-1,1.328379512E0,-1.003847957E0,1.754990894E0
1.472676472E0,5.718025565E-1,1.333877325E0,-1.004458904E0,1.764971550E0
1.475122149E0,5.834089518E-1,1.324103475E0,-1.006291509E0,1.762452444E0
1.477567045E0,5.919610858E-1,1.305166602E0,-1.008734941E0,1.752547851E0
1.480011159E0,5.956262350E-1,1.274012566E0,-1.014843583E0,1.734297012E0
1.482456055E0,5.974588394E-1,1.236138940E0,-1.023395658E0,1.712406265E0
1.484901732E0,5.944045186E-1,1.187880635E0,-1.035002112E0,1.683925921E0
1.487346628E0,5.889067650E-1,1.137178779E0,-1.047830224E0,1.654670641E0
1.489790691E0,5.803546309E-1,1.079146743E0,-1.062491059E0,1.621806536E0
1.492235586E0,5.711916685E-1,1.016227603E0,-1.078984380E0,1.588453888E0
1.494681263E0,5.589743853E-1,9.496433735E-1,-1.093034267E0,1.552094975E0
1.497126159E0,5.449244976E-1,8.855025768E-1,-1.105862379E0,1.517889694E0
1.499570274E0,5.272094011E-1,8.201400638E-1,-1.113803625E0,1.480249301E0
1.502015170E0,5.082725883E-1,7.572209835E-1,-1.121134043E0,1.445221846E0
1.504460847E0,4.905575216E-1,6.979671121E-1,-1.122966647E0,1.410269074E0
1.506905743E0,4.746750295E-1,6.405458450E-1,-1.122355700E0,1.376698108E0
1.509349805E0,4.594034255E-1,5.843462348E-1,-1.116858006E0,1.341597493E0
1.511794701E0,4.459643960E-1,5.269249678E-1,-1.108305812E0,1.305708979E0
1.514240378E0,4.349688292E-1,4.633950293E-1,-1.096088529E0,1.267021270E0
1.516685274E0,4.233624041E-1,4.016976953E-1,-1.081427813E0,1.228854295E0
1.519129336E0,4.117559791E-1,3.351134360E-1,-1.060658455E0,1.186103014E0
1.521574232E0,3.964843452E-1,2.636422515E-1,-1.035612941E0,1.139825090E0
1.524019909E0,3.812127411E-1,1.842298508E-1,-1.008123994E0,1.093424793E0
1.526464805E0,3.702171743E-1,9.443274140E-2,-9.751372337E-1,1.047316057E0
1.528908920E0,3.604433239E-1,-2.694746945E-3,-9.360418916E-1,1.003045898E0
1.531353816E0,3.482260406E-1,-9.737877548E-2,-8.926705122E-1,9.631223415E-1
1.533799493E0,3.347870111E-1,-1.816781163E-1,-8.480773568E-1,9.296905313E-1
1.536244388E0,3.176828027E-1,-2.537601590E-1,-8.010407686E-1,8.983222665E-1
1.538688451E0,2.975242734E-1,-3.166792393E-1,-7.521716356E-1,8.686590835E-1
1.541133347E0,2.853069901E-1,-3.722679317E-1,-7.039132714E-1,8.458589630E-1
1.543579024E0,2.773657441E-1,-4.254131615E-1,-6.574875712E-1,8.307815720E-1
1.546023920E0,2.773657441E-1,-4.742823243E-1,-6.147270203E-1,8.244784949E-1
1.548468034E0,2.779766023E-1,-5.200971365E-1,-5.762425661E-1,8.245165358E-1
1.550912930E0,2.798092067E-1,-5.665228963E-1,-5.420341492E-1,8.324916835E-1
1.553358607E0,2.773657441E-1,-6.062290668E-1,-5.139343739E-1,8.417683637E-1
1.555803503E0,2.712570727E-1,-6.471570134E-1,-4.925541282E-1,8.573226748E-1
1.558247566E0,2.620941103E-1,-6.923609972E-1,-4.760607779E-1,8.801652898E-1
1.560692461E0,2.541528642E-1,-7.424519062E-1,-4.668978155E-1,9.131385883E-1
1.563138138E0,2.443790585E-1,-7.913210988E-1,-4.632326365E-1,9.489439821E-1
1.565583034E0,2.364378124E-1,-8.426337242E-1,-4.638434947E-1,9.904974608E-1
1.568027149E0,2.284965664E-1,-8.884485960E-1,-4.693412781E-1,1.030452728E0
1.570471993E0,2.242205143E-1,-9.257113338E-1,-4.772825241E-1,1.065370790E0
1.572917722E0,2.217770666E-1,-9.470915794E-1,-4.846128821E-1,1.086746140E0
1.575362566E0,2.199444622E-1,-9.452589750E-1,-4.931649864E-1,1.088623810E0
1.577806680E0,2.199444622E-1,-9.183809757E-1,-5.011062026E-1,1.069068103E0
1.580251576E0,2.242205143E-1,-8.609596491E-1,-5.072148442E-1,1.024106076E0
1.582697253E0,2.370486706E-1,-7.821581364E-1,-5.090474486E-1,9.628565457E-1
1.585142149E0,2.602615356E-1,-6.850306392E-1,-5.108800530E-1,8.933092813E-1
1.587586211E0,2.981351316E-1,-5.799618959E-1,-5.078257322E-1,8.265151733E-1
1.590031107E0,3.445608616E-1,-4.663410783E-1,-5.023279190E-1,7.671567811E-1
1.592476784E0,3.934300244E-1,-3.460007310E-1,-4.956084788E-1,7.212013964E-1
1.594921680E0,4.441317916E-1,-2.287146896E-1,-4.840020239E-1,6.955727257E-1
1.597365795E0,4.899466634E-1,-1.157047153E-1,-4.711738527E-1,6.895216556E-1
1.599810691E0,5.302637219E-1,-1.430117711E-2,-4.583457112E-1,7.010455973E-1
1.602256368E0,5.620287061E-1,6.877642870E-2,-4.418523610E-1,7.182200028E-1
1.604701263E0,5.840198398E-1,1.396367252E-1,-4.302459359E-1,7.387077593E-1
1.607145326E0,5.925719142E-1,1.958362907E-1,-4.168069065E-1,7.504807283E-1
1.609590222E0,5.895175934E-1,2.465380579E-1,-4.070330560E-1,7.576199018E-1
1.612035899E0,5.834089518E-1,2.770812809E-1,-3.960375190E-1,7.576184777E-1
1.614480795E0,5.773003101E-1,2.929637730E-1,-3.880962729E-1,7.547994021E-1
1.616924909E0,5.748568773E-1,2.941854894E-1,-3.795441687E-1,7.490389226E-1
1.619369805E0,5.730242729E-1,2.880768478E-1,-3.716029227E-1,7.412380318E-1
1.621815482E0,5.730242729E-1,2.783029974E-1,-3.593856096E-1,7.314146513E-1
1.624260326E0,5.718025565E-1,2.746378183E-1,-3.453357220E-1,7.222470878E-1
1.626704441E0,5.675264597E-1,2.783029974E-1,-3.276206553E-1,7.119509355E-1
1.629149336E0,5.681373477E-1,2.954072058E-1,-3.062403798E-1,7.098088710E-1
1.631595013E0,5.675264597E-1,3.265613317E-1,-2.799732089E-1,7.121190796E-1
1.634039909E0,5.687482357E-1,3.760413527E-1,-2.530951500E-1,7.272817951E-1
1.636484024E0,5.711916685E-1,4.389604330E-1,-2.225519121E-1,7.539731676E-1
1.638928868E0,5.724133849E-1,5.159294009E-1,-1.895652115E-1,7.935837696E-1
1.641374545E0,5.742459893E-1,6.008396149E-1,-1.547459215E-1,8.454070021E-1
1.643819441E0,5.779111981E-1,6.881932616E-1,-1.205375046E-1,9.067086678E-1
1.646263555E0,5.827981234E-1,7.706599832E-1,-8.571822941E-2,9.700093180E-1
1.648708451E0,5.821872354E-1,8.451855183E-1,-4.845546931E-2,1.027437818E0
1.651154128E0,5.815763474E-1,9.044393897E-1,-1.180358976E-2,1.075351562E0
1.653599024E0,5.754677057E-1,9.484216571E-1,2.423742972E-2,1.109618931E0
1.656043086E0,5.656938553E-1,9.716345072E-1,5.905672163E-2,1.125864490E0
1.658487982E0,5.479788184E-1,9.765213728E-1,9.448686242E-2,1.123744875E0
1.660933659E0,5.278202891E-1,9.600280523E-1,1.293061525E-1,1.103162817E0
1.663378555E0,5.015531182E-1,9.282631278E-1,1.622928679E-1,1.067505007E0
1.665822670E0,4.716207087E-1,8.842808604E-1,1.946686953E-1,1.020918525E0
1.668267566E0,4.361905754E-1,8.286921382E-1,2.300988436E-1,9.643331145E-1
1.670713243E0,4.019821286E-1,7.633296251E-1,2.655289769E-1,9.026446620E-1
1.673158138E0,3.647193909E-1,6.955236197E-1,3.003482819E-1,8.408224723E-1
1.675602201E0,3.292892277E-1,6.240524650E-1,3.357784450E-1,7.814218058E-1
1.678047097E0,2.932482064E-1,5.550247431E-1,3.693760037E-1,7.283444296E-1
1.680492774E0,2.596506476E-1,4.866078794E-1,4.041952789E-1,6.837978580E-1
1.682937670E0,2.260531187E-1,4.242996871E-1,4.377928376E-1,6.502251961E-1
1.685381784E0,1.906229556E-1,3.711544573E-1,4.689469337E-1,6.276973547E-1
1.687826628E0,1.564145386E-1,3.247287273E-1,5.001010895E-1,6.164538539E-1
1.690272357E0,1.252604276E-1,2.886877060E-1,5.288116932E-1,6.153637730E-1
1.692717201E0,9.471718967E-2,2.575336099E-1,5.563006401E-1,6.202945336E-1
1.695161316E0,6.539568305E-2,2.349316329E-1,5.837895274E-1,6.326765997E-1
1.697606211E0,3.790676966E-2,2.190491408E-1,6.070023775E-1,6.464296834E-1
1.700051888E0,1.530477498E-2,2.074427158E-1,6.296043992E-1,6.630749701E-1
1.702496784E0,-3.021165729E-3,1.952254176E-1,6.515955329E-1,6.802196922E-1
1.704940899E0,-1.951451227E-2,1.836189926E-1,6.693105698E-1,6.943150505E-1
1.707385743E0,-3.356440365E-2,1.701799631E-1,6.864148378E-1,7.079923154E-1
1.709831420E0,-4.883601889E-2,1.610170007E-1,7.053515911E-1,7.251429503E-1
1.712276316E0,-6.838369370E-2,1.561300755E-1,7.230666876E-1,7.428851625E-1
1.714720430E0,-8.976395428E-2,1.561300755E-1,7.438361049E-1,7.653275892E-1
1.717165326E0,-1.166420057E-1,1.604061276E-1,7.639946342E-1,7.893182402E-1
1.719611003E0,-1.441309154E-1,1.720125675E-1,7.884292006E-1,8.197454779E-1
1.722055899E0,-1.716198176E-1,1.866733134E-1,8.110312223E-1,8.497481576E-1
1.724499961E0,-1.984978765E-1,2.007232010E-1,8.366875052E-1,8.830272883E-1
1.726944857E0,-2.229324579E-1,2.141622305E-1,8.629547358E-1,9.166543611E-1
1.729390534E0,-2.443127185E-1,2.239360660E-1,8.916653395E-1,9.512639716E-1
1.731835430E0,-2.577517629E-1,2.221034616E-1,9.203760028E-1,9.812532321E-1
1.734279545E0,-2.705799341E-1,2.117187679E-1,9.478648901E-1,1.008209397E0
1.736724441E0,-2.882950008E-1,2.092753053E-1,9.759646654E-1,1.038950042E0
1.739170118E0,-3.127295971E-1,2.111079097E-1,1.004064441E0,1.072619108E0
1.741615013E0,-3.396076262E-1,2.129404992E-1,1.030942440E0,1.106128072E0
1.744059076E0,-3.646530807E-1,2.086644471E-1,1.055987835E0,1.136495943E0
1.746503972E0,-3.872550726E-1,1.976688802E-1,1.078589797E0,1.162925375E0
1.748949649E0,-4.080244899E-1,1.823972613E-1,1.100580931E0,1.187868314E0
1.751394545E0,-4.275721610E-1,1.659039110E-1,1.119517803E0,1.209819066E0
1.753838659E0,-4.465089738E-1,1.518540233E-1,1.138454556E0,1.232277844E0
1.756283503E0,-4.666675031E-1,1.402475983E-1,1.154947877E0,1.253536017E0
1.758729232E0,-4.880477488E-1,1.335280836E-1,1.169608712E0,1.274364506E0
1.761174076E0,-5.094280243E-1,1.298628896E-1,1.185491204E0,1.296831013E0
1.763618191E0,-5.356951952E-1,1.390258670E-1,1.197097540E0,1.318840420E0
1.766063086E0,-5.656275749E-1,1.585735381E-1,1.208093166E0,1.343342555E0
1.768508763E0,-5.967816710E-1,1.781212091E-1,1.216034412E0,1.366241274E0
1.770953659E0,-6.236597300E-1,1.915602386E-1,1.218477845E0,1.382148705E0
1.773397722E0,-6.468725801E-1,2.001123428E-1,1.219699621E0,1.395047042E0
1.775842618E0,-6.658093929E-1,2.031666636E-1,1.219088674E0,1.403836185E0
1.778288295E0,-6.786375642E-1,1.970580071E-1,1.214201808E0,1.404872532E0
1.780733191E0,-6.896331310E-1,1.842298508E-1,1.210536599E0,1.405323219E0
1.783177305E0,-6.987960935E-1,1.714016944E-1,1.205038786E0,1.403500266E0
1.785622201E0,-7.122350931E-1,1.622387320E-1,1.199541092E0,1.404456858E0
1.788067878E0,-7.305610776E-1,1.591843963E-1,1.197708488E0,1.411936536E0
1.790512774E0,-7.501087189E-1,1.555192173E-1,1.195875883E0,1.420200143E0
1.792956836E0,-7.647694945E-1,1.414693296E-1,1.193432450E0,1.424488317E0
1.795401732E0,-7.714889646E-1,1.164238751E-1,1.191599846E0,1.424310336E0
1.797847409E0,-7.739324570E-1,8.343717456E-2,1.190988898E0,1.422809814E0
1.800292305E0,-7.745433450E-1,4.861788452E-2,1.190988898E0,1.421525817E0
1.802736420E0,-7.757650614E-1,1.440946572E-2,1.190378070E0,1.420921888E0
1.805181263E0,-7.745433450E-1,-1.796636544E-2,1.189156413E0,1.419272052E0
1.807626993E0,-7.739324570E-1,-5.339651927E-2,1.188545465E0,1.419317780E0
1.810071836E0,-7.739324570E-1,-8.638320863E-2,1.183047652E0,1.416345740E0
1.812515951E0,-7.757650614E-1,-1.224242300E-1,1.179382563E0,1.416948253E0
1.814960847E0,-7.806519866E-1,-1.590761244E-1,1.172662973E0,1.417695731E0
1.817406524E0,-7.885932326E-1,-1.890084893E-1,1.164110899E0,1.418716914E0
1.819851420E0,-8.038648367E-1,-2.103887498E-1,1.154337049E0,1.422306621E0
1.822295482E0,-8.209690452E-1,-2.238277793E-1,1.142119765E0,1.424263531E0
1.824740378E0,-8.356297612E-1,-2.372668087E-1,1.125626445E0,1.421832455E0
1.827186107E0,-8.380732536E-1,-2.604796588E-1,1.109743953E0,1.414831464E0
1.829630951E0,-8.295211196E-1,-2.946881056E-1,1.092028856E0,1.402666529E0
1.832075066E0,-8.093625903E-1,-3.447790146E-1,1.075535536E0,1.389502451E0
1.834519961E0,-7.837063074E-1,-4.046437442E-1,1.059653044E0,1.378693842E0
1.836965638E0,-7.549956441E-1,-4.736714661E-1,1.046213984E0,1.374389603E0
1.839410534E0,-7.275067568E-1,-5.543055534E-1,1.033996701E0,1.380460034E0
1.841854597E0,-7.030721307E-1,-6.410483718E-1,1.023612022E0,1.397510289E0
1.844299493E0,-6.865788102E-1,-7.326780558E-1,1.012005568E0,1.425609647E0
1.846745170E0,-6.774158478E-1,-8.236969113E-1,1.001621008E0,1.463083551E0
1.849190066E0,-6.810809970E-1,-9.104397297E-1,9.857385159E-1,1.504809705E0
1.851634180E0,-6.829136014E-1,-1.003902078E0,9.668017030E-1,1.552061823E0
1.854079076E0,-6.719180346E-1,-1.122409821E0,9.380910993E-1,1.609749223E0
1.856524753E0,-6.511486173E-1,-1.259243488E0,9.057152271E-1,1.682262987E0
1.858969649E0,-6.248814464E-1,-1.397909760E0,8.666198850E-1,1.759448364E0
1.861413711E0,-6.028903127E-1,-1.531078219E0,8.238593936E-1,1.840223232E0
1.863858607E0,-5.839534998E-1,-1.653251171E0,7.792662382E-1,1.918722751E0
1.866304284E0,-5.662384629E-1,-1.766261220E0,7.310079336E-1,1.993659272E0
1.868749180E0,-5.503559709E-1,-1.861556053E0,6.790844202E-1,2.056559818E0
1.871193295E0,-5.399712920E-1,-1.926918626E0,6.234957576E-1,2.096027516E0
1.873638191E0,-5.344734788E-1,-1.954407573E0,5.630201101E-1,2.102941393E0
1.876083868E0,-5.314191580E-1,-1.945244551E0,4.976575673E-1,2.077028102E0
1.878528763E0,-5.216453075E-1,-1.896375418E0,4.206886292E-1,2.011301189E0
1.880972826E0,-5.014867783E-1,-1.813297749E0,3.345566988E-1,1.910880922E0
1.883417722E0,-4.685000777E-1,-1.703342080E0,2.398726791E-1,1.782808309E0
1.885863399E0,-4.257395566E-1,-1.554901958E0,1.360256821E-1,1.617861939E0
1.888308295E0,-3.750377893E-1,-1.371642590E0,2.729175240E-2,1.422252290E0
1.890752357E0,-3.218925595E-1,-1.157229066E0,-8.205303550E-2,1.203962886E0
1.893197253E0,-2.675255835E-1,-9.153266549E-1,-1.901760846E-1,9.723989748E-1
1.895642930E0,-2.137694806E-1,-6.489896178E-1,-2.928013802E-1,7.433825147E-1
1.898087826E0,-1.557373405E-1,-3.734896481E-1,-3.832093477E-1,5.573132339E-1
1.900531941E0,-1.007595211E-1,-9.737877548E-2,-4.632326365E-1,4.839623771E-1
1.902976836E0,-4.150564224E-2,1.695691049E-1,-5.328711867E-1,5.607388887E-1
1.905422513E0,1.896996424E-2,4.157475829E-1,-5.909033418E-1,7.227535344E-1
1.907867409E0,8.249989897E-2,6.344371438E-1,-6.354964375E-1,9.017607470E-1
1.910311472E0,1.429755092E-1,8.262487054E-1,-6.715374589E-1,1.074286497E0
1.912756368E0,1.955098808E-1,9.844626188E-1,-6.971938014E-1,1.222076085E0
1.915202045E0,2.394921333E-1,1.114576817E0,-7.124654055E-1,1.344338096E0
1.917646941E0,2.767548561E-1,1.214758635E0,-7.222392559E-1,1.440090738E0
1.920091055E0,3.085198402E-1,1.289895058E0,-7.228500843E-1,1.510472110E0
1.922535951E0,3.317326903E-1,1.340596795E0,-7.216283679E-1,1.558202120E0
1.924981628E0,3.525021076E-1,1.377248645E0,-7.161306143E-1,1.591827447E0
1.927426524E0,3.696063161E-1,1.399850607E0,-7.051350474E-1,1.610405535E0
1.929870586E0,3.873213828E-1,1.410235405E0,-6.953611970E-1,1.619354484E0
1.932315482E0,4.032038748E-1,1.414511442E0,-6.837547421E-1,1.622016194E0
1.934761159E0,4.196972251E-1,1.414511442E0,-6.733700633E-1,1.621855611E0
1.937206055E0,4.331362247E-1,1.411457062E0,-6.648179293E-1,1.619197612E0
1.939650170E0,4.453535378E-1,1.407181025E0,-6.568766832E-1,1.615544857E0
1.942095013E0,4.532947838E-1,1.399850607E0,-6.495463252E-1,1.608405518E0
1.944540743E0,4.600142837E-1,1.389465928E0,-6.458811760E-1,1.599809739E0
1.946985586E0,4.624577463E-1,1.374805212E0,-6.446594000E-1,1.587306612E0
1.949429701E0,4.606251419E-1,1.352814078E0,-6.477137208E-1,1.569017054E0
1.951874597E0,4.557382464E-1,1.322881699E0,-6.550441384E-1,1.544925940E0
1.954320274E0,4.484078586E-1,1.282564640E0,-6.660397053E-1,1.513159130E0
1.956765170E0,4.355796874E-1,1.230641127E0,-6.794787049E-1,1.471699207E0
1.959209232E0,4.203080833E-1,1.167722106E0,-6.959720254E-1,1.422888211E0
1.961654128E0,4.044255912E-1,1.093196630E0,-7.118545175E-1,1.365787606E0
1.964099805E0,3.873213828E-1,1.008286357E0,-7.289587259E-1,1.303088660E0
1.966544701E0,3.677737117E-1,9.191001058E-1,-7.405651808E-1,1.236300649E0
1.968988816E0,3.506695032E-1,8.231943846E-1,-7.503390312E-1,1.167744303E0
1.971433711E0,3.347870111E-1,7.199582458E-1,-7.527824640E-1,1.094122323E0
1.973879388E0,3.244023323E-1,6.161112189E-1,-7.497281432E-1,1.023192160E0
1.976324284E0,3.121850193E-1,5.165402889E-1,-7.399542928E-1,9.548851825E-1
1.978768347E0,3.054655194E-1,4.261322618E-1,-7.240718603E-1,8.939675313E-1
1.981213243E0,2.950808108E-1,3.503850400E-1,-7.033024430E-1,8.393310953E-1
1.983658920E0,2.865287066E-1,2.886877060E-1,-6.758134961E-1,7.887732075E-1
1.986103816E0,2.810309231E-1,2.416511327E-1,-6.434376836E-1,7.425535013E-1
1.988547930E0,2.779766023E-1,2.062209845E-1,-6.098401546E-1,7.012154448E-1
1.990992774E0,2.791983187E-1,1.842298508E-1,-5.744099617E-1,6.647098188E-1
1.993438503E0,2.828635275E-1,1.677365154E-1,-5.347037911E-1,6.277383675E-1
1.995883399E0,2.938590944E-1,1.542974859E-1,-4.968301952E-1,5.974957108E-1
1.998327461E0,3.079089820E-1,1.371932775E-1,-4.589565694E-1,5.694480391E-1
2.000772357E0,3.231805861E-1,1.182564646E-1,-4.168069065E-1,5.405166787E-1
2.003218034E0,3.366196156E-1,9.748706222E-2,-3.783224225E-1,5.156979234E-1
2.005662930E0,3.463934362E-1,7.183074951E-2,-3.392270803E-1,4.901255770E-1
2.008107045E0,3.525021076E-1,4.006578028E-2,-3.044078052E-1,4.674688380E-1
2.010551888E0,3.555564284E-1,2.803036477E-3,-2.701993585E-1,4.465824942E-1
2.012997566E0,3.549455404E-1,-3.629231080E-2,-2.402669936E-1,4.301531085E-1
2.015442461E0,3.512803614E-1,-8.455061913E-2,-2.103346139E-1,4.180757698E-1
2.017886576E0,3.476151824E-1,-1.315872073E-1,-1.852891594E-1,4.153114262E-1
2.020331472E0,3.427282572E-1,-1.774020642E-1,-1.620763093E-1,4.185724318E-1
2.022777149E0,3.372304738E-1,-2.207734585E-1,-1.449720860E-1,4.283482440E-1
2.025222045E0,3.366196156E-1,-2.635339797E-1,-1.321439296E-1,4.474650178E-1
2.027666107E0,3.378413320E-1,-3.007967472E-1,-1.235918254E-1,4.689247146E-1
2.030111003E0,3.427282572E-1,-3.337834477E-1,-1.205375046E-1,4.933592385E-1
2.032556680E0,3.494477570E-1,-3.557745814E-1,-1.217592359E-1,5.133367308E-1
2.035001576E0,3.567781448E-1,-3.698244691E-1,-1.297004670E-1,5.299839561E-1
2.037445691E0,3.641085327E-1,-3.679918647E-1,-1.425286382E-1,5.369426867E-1
2.039890586E0,3.720497787E-1,-3.557745814E-1,-1.620763093E-1,5.396900228E-1
2.042336263E0,3.818235993E-1,-3.374486268E-1,-1.871217489E-1,5.428401106E-1
2.044781159E0,3.952626288E-1,-3.142357767E-1,-2.146106660E-1,5.486660250E-1
2.047225222E0,4.135885537E-1,-2.873577178E-1,-2.433213145E-1,5.593167365E-1
2.049670118E0,4.386340082E-1,-2.543710172E-1,-2.720319629E-1,5.754179319E-1
2.052115795E0,4.655120671E-1,-2.140539438E-1,-2.970774174E-1,5.922630896E-1
2.054560691E0,4.948335886E-1,-1.664064974E-1,-3.178468347E-1,6.112102855E-1
2.057004805E0,5.235441923E-1,-1.040982902E-1,-3.318967223E-1,6.285621764E-1
2.059449649E0,5.546982884E-1,-2.774020098E-2,-3.380053639E-1,6.501594697E-1
2.061895378E0,5.876849890E-1,6.572210789E-2,-3.349510431E-1,6.796213968E-1
2.064340222E0,6.194499731E-1,1.781212091E-1,-3.282315135E-1,7.233127683E-1
2.066784336E0,6.493823528E-1,3.051810563E-1,-3.154033720E-1,7.837807119E-1
2.069229232E0,6.817581654E-1,4.395712912E-1,-3.001317382E-1,8.649255323E-1
2.071674909E0,7.159665823E-1,5.666311979E-1,-2.824166715E-1,9.557396287E-1
2.074119805E0,7.532293797E-1,6.784194112E-1,-2.604255378E-1,1.046627372E0
2.076563868E0,7.917138338E-1,7.651622295E-1,-2.372126579E-1,1.126300971E0
2.079008763E0,8.259222507E-1,8.225834966E-1,-2.121672034E-1,1.184823234E0
2.081454441E0,8.515785933E-1,8.555701971E-1,-1.865108907E-1,1.221463374E0
2.083899336E0,8.699045181E-1,8.616788387E-1,-1.584111154E-1,1.234632890E0
2.086343451E0,8.741805553E-1,8.451855183E-1,-1.284787357E-1,1.222717052E0
2.088788347E0,8.699045181E-1,8.097553253E-1,-9.915724397E-2,1.192589500E0
2.091234024E0,8.589089513E-1,7.596644163E-1,-7.044661045E-2,1.148815624E0
2.093678920E0,8.460807800E-1,6.943019032E-1,-4.295768961E-2,1.095332453E0
2.096122982E0,8.308091760E-1,6.179438233E-1,-1.913396642E-2,1.035598650E0
2.098567878E0,8.112614751E-1,5.440291762E-1,1.024569850E-3,9.767875794E-1
2.101013555E0,7.856051922E-1,4.786666334E-1,1.690705307E-2,9.200995122E-1
2.103458451E0,7.532293797E-1,4.200236201E-1,3.095694073E-2,8.629789522E-1
2.105902566E0,7.190209031E-1,3.674892485E-1,4.011991248E-2,8.084856302E-1
2.108347461E0,6.878668070E-1,3.143440187E-1,4.867202044E-2,7.578534633E-1
2.110793138E0,6.603779197E-1,2.624205351E-1,5.539153144E-2,7.127634641E-1
2.113238034E0,6.383867860E-1,2.092753053E-1,6.211104244E-2,6.746789040E-1
2.115682097E0,6.176173687E-1,1.567409486E-1,7.005228102E-2,6.410353041E-1
2.118126993E0,5.974588394E-1,1.121478230E-1,8.043697476E-2,6.131918997E-1
2.120572670E0,5.803546309E-1,7.671767473E-2,9.265427291E-2,5.926904028E-1
2.123017566E0,5.644721389E-1,5.167221278E-2,1.067041606E-1,5.767881682E-1
2.125461680E0,5.534765720E-1,3.640059382E-2,1.225866526E-1,5.680570450E-1
2.127906524E0,5.443136096E-1,3.395713121E-2,1.403017342E-1,5.631296201E-1
2.130352201E0,5.375940800E-1,4.128751159E-2,1.574059427E-1,5.616837938E-1
2.132797097E0,5.278202891E-1,5.655913055E-2,1.787862182E-1,5.601407900E-1
2.135241211E0,5.204898715E-1,7.549594343E-2,1.983338892E-1,5.620904513E-1
2.137686107E0,5.101051927E-1,9.382188320E-2,2.191032916E-1,5.630418330E-1
2.140131784E0,4.991096258E-1,1.048174351E-1,2.368183583E-1,5.622988957E-1
2.142576680E0,4.850597382E-1,1.054283082E-1,2.563660145E-1,5.586784506E-1
2.145020743E0,4.679555297E-1,9.321101010E-2,2.722485065E-1,5.493540930E-1
2.147465638E0,4.477970004E-1,6.694383919E-2,2.881309688E-1,5.366778236E-1
2.149911316E0,4.233624041E-1,3.273540735E-2,3.040134609E-1,5.222370310E-1
2.152356211E0,3.970952332E-1,-1.063598879E-2,3.198959529E-1,5.100305571E-1
2.154800326E0,3.696063161E-1,-6.317035109E-2,3.357784450E-1,5.033353616E-1
2.157245222E0,3.427282572E-1,-1.138721257E-1,3.510500491E-1,5.036523168E-1
2.159690899E0,3.182936609E-1,-1.664064974E-1,3.669325411E-1,5.134602873E-1
2.162135795E0,2.944699526E-1,-2.109996229E-1,3.870910704E-1,5.301630793E-1
2.164579857E0,2.706462145E-1,-2.390993983E-1,4.054169953E-1,5.429372300E-1
2.167024753E0,2.474333644E-1,-2.482623607E-1,4.274081290E-1,5.527523661E-1
2.169470430E0,2.223879248E-1,-2.403211296E-1,4.487884045E-1,5.555372772E-1
2.171915326E0,2.046728432E-1,-2.226060480E-1,4.738338590E-1,5.621058186E-1
2.174359441E0,1.906229556E-1,-1.975605935E-1,4.988793135E-1,5.694276677E-1
2.176804336E0,1.802382618E-1,-1.602978408E-1,5.233139396E-1,5.762280001E-1
2.179250013E0,1.747404784E-1,-1.169264466E-1,5.514137149E-1,5.901382157E-1
2.181694909E0,1.710752845E-1,-6.439208239E-2,5.789026022E-1,6.070760381E-1
2.184138972E0,1.710752845E-1,-5.138205830E-3,6.070023775E-1,6.306703104E-1
2.186583868E0,1.710752845E-1,6.205691025E-2,6.357130408E-1,6.612479742E-1
2.189029545E0,1.692426950E-1,1.378041357E-1,6.632019281E-1,6.981904232E-1
2.191474441E0,1.631340533E-1,2.233252078E-1,6.931343079E-1,7.462720928E-1
2.193918503E0,1.570253968E-1,3.125114441E-1,7.212340832E-1,8.015603413E-1
2.196363399E0,1.478624344E-1,3.974216282E-1,7.505556345E-1,8.620562688E-1
2.198809076E0,1.374777257E-1,4.817209542E-1,7.798771262E-1,9.269107480E-1
2.201253972E0,1.264821589E-1,5.574682355E-1,8.073660135E-1,9.892464050E-1
2.203698086E0,1.142648607E-1,6.246633530E-1,8.324114680E-1,1.046981191E0
2.206142982E0,1.063236222E-1,6.826955080E-1,8.586786389E-1,1.102137412E0
2.208588659E0,9.044113755E-2,7.272886038E-1,8.867784142E-1,1.150436556E0
2.211033555E0,7.944557071E-2,7.602753043E-1,9.136564732E-1,1.191259119E0
2.213477618E0,6.356308609E-2,7.755469084E-1,9.423671365E-1,1.222116645E0
2.215922513E0,6.600654870E-2,7.731034756E-1,9.722995162E-1,1.243950239E0
2.218368191E0,5.501098186E-2,7.419493794E-1,9.997884035E-1,1.246231095E0
2.220813086E0,6.295222044E-2,7.065191865E-1,1.027888060E0,1.248873975E0
2.223257201E0,4.829147086E-2,6.570391655E-1,1.051711798E0,1.241019837E0
2.225702097E0,3.668504208E-2,6.209981441E-1,1.076146364E0,1.243010653E0
2.228147774E0,-6.686354056E-3,5.910657644E-1,1.098137498E0,1.247120447E0
2.230592670E0,-5.738812685E-2,5.812919140E-1,1.115241766E0,1.258951104E0
2.233036732E0,-1.087007597E-1,5.709072351E-1,1.129291654E0,1.270059276E0
2.235481628E0,-1.630677134E-1,5.641877055E-1,1.137843728E0,1.280463664E0
2.237927305E0,-1.960544139E-1,5.641877055E-1,1.144563198E0,1.291034475E0
2.240372201E0,-2.382040769E-1,5.586899519E-1,1.143341541E0,1.294644942E0
2.242816316E0,-2.498105019E-1,5.593007803E-1,1.141508937E0,1.295478793E0
2.245261159E0,-2.699690461E-1,5.385314226E-1,1.135400295E0,1.285314440E0
2.247706888E0,-2.656930089E-1,5.226489305E-1,1.129291654E0,1.272420653E0
2.250151732E0,-2.718016505E-1,4.902730882E-1,1.121961236E0,1.254209254E0
2.252595847E0,-2.785211504E-1,4.627841413E-1,1.115241766E0,1.239155918E0
2.255040743E0,-2.944036424E-1,4.352952540E-1,1.112187386E0,1.230087901E0
2.257486420E0,-3.347207308E-1,4.120823741E-1,1.109743953E0,1.230195713E0
2.259931316E0,-3.756486475E-1,3.968107700E-1,1.111576557E0,1.238617429E0
2.262375378E0,-4.391785860E-1,3.735978901E-1,1.109743953E0,1.250593801E0
2.264820274E0,-4.837717116E-1,3.522176445E-1,1.110354781E0,1.261340588E0
2.267265951E0,-5.387495160E-1,3.009049892E-1,1.106689572E0,1.267105624E0
2.269710847E0,-5.625732541E-1,2.404294163E-1,1.102413535E0,1.260797594E0
2.272154961E0,-5.882295966E-1,1.591843963E-1,1.095694065E0,1.253754049E0
2.274599857E0,-6.071664095E-1,9.260015190E-2,1.086531043E0,1.248108787E0
2.277045534E0,-6.224380136E-1,2.418330126E-2,1.080422401E0,1.247127290E0
2.279490430E0,-6.499269009E-1,-3.751403838E-2,1.072481155E0,1.254602769E0
2.281934493E0,-6.578681469E-1,-9.493531287E-2,1.067594290E0,1.257601201E0
2.284379388E0,-6.908548474E-1,-1.566326618E-1,1.060263872E0,1.275136734E0
2.286825066E0,-7.024613023E-1,-2.048909664E-1,1.051100969E0,1.280720671E0
2.289269961E0,-7.366697192E-1,-2.574253380E-1,1.041327119E0,1.301273318E0
2.291714076E0,-7.513304353E-1,-2.940772474E-1,1.031553268E0,1.309611009E0
2.294158972E0,-7.782084942E-1,-3.356160223E-1,1.021779418E0,1.327508853E0
2.296604649E0,-7.965344191E-1,-3.606614769E-1,1.008340359E0,1.334651288E0
2.299049545E0,-8.093625903E-1,-3.881503940E-1,9.973449707E-1,1.341799360E0
2.301493607E0,-8.270776868E-1,-4.107523859E-1,9.814624786E-1,1.347606626E0
2.303938503E0,-8.258559704E-1,-4.266348779E-1,9.668017030E-1,1.341178935E0
2.306384180E0,-8.362406492E-1,-4.535129368E-1,9.472540617E-1,1.342483767E0
2.308829076E0,-8.289102912E-1,-4.871104956E-1,9.246520400E-1,1.333922899E0
2.311273138E0,-8.130277991E-1,-5.390339494E-1,9.008283019E-1,1.327803988E0
2.313718034E0,-8.001996279E-1,-5.970661044E-1,8.751720190E-1,1.327679721E0
2.316163711E0,-7.830954194E-1,-6.722024679E-1,8.470722437E-1,1.335150171E0
2.318608607E0,-7.592716813E-1,-7.674973607E-1,8.177507520E-1,1.354349282E0
2.321052722E0,-7.336153984E-1,-8.841724992E-1,7.835422754E-1,1.390644116E0
2.323497618E0,-7.140676975E-1,-1.006956339E0,7.505556345E-1,1.444710180E0
2.325943295E0,-7.000178099E-1,-1.137681365E0,7.132928371E-1,1.514308586E0
2.328388191E0,-6.951308846E-1,-1.262908697E0,6.735866666E-1,1.591183309E0
2.330832253E0,-6.969634891E-1,-1.379583836E0,6.326587200E-1,1.670109793E0
2.333277149E0,-6.981852055E-1,-1.495037198E0,5.880655646E-1,1.751690587E0
2.335722826E0,-6.914657354E-1,-1.603160262E0,5.379746556E-1,1.826927590E0
2.338167722E0,-6.774158478E-1,-1.702120423E0,4.805533588E-1,1.893947649E0
2.340611836E0,-6.603116393E-1,-1.784587145E0,4.212994874E-1,1.948911490E0
2.343056732E0,-6.407639384E-1,-1.844451904E0,3.589912951E-1,1.985310052E0
2.345502409E0,-6.206054091E-1,-1.871329904E0,2.930178940E-1,1.993210016E0
2.347947305E0,-5.980033875E-1,-1.867053866E0,2.239902020E-1,1.973238405E0
2.350391368E0,-5.741797090E-1,-1.834067225E0,1.506864280E-1,1.927742546E0
2.352836263E0,-5.466907620E-1,-1.774813294E0,7.127401233E-2,1.858470609E0
2.355281941E0,-5.130932331E-1,-1.695400834E0,-1.485791244E-2,1.771403232E0
2.357726836E0,-4.752196074E-1,-1.590332150E0,-1.046550274E-1,1.663112353E0
2.360170951E0,-4.336808026E-1,-1.469991803E0,-2.011716515E-1,1.545776495E0
2.362615795E0,-3.903093934E-1,-1.334379792E0,-3.007425964E-1,1.422447525E0
2.365061524E0,-3.451054096E-1,-1.187772274E0,-4.033678770E-1,1.301002061E0
2.367506368E0,-3.011231422E-1,-1.026504040E0,-5.053822398E-1,1.183130128E0
2.369950482E0,-2.565300465E-1,-8.548510075E-1,-6.031206250E-1,1.077187262E0
2.372395378E0,-2.101043016E-1,-6.770893931E-1,-7.002481222E-1,9.964643980E-1
2.374841055E0,-1.642894447E-1,-4.938299954E-1,-7.900452018E-1,9.460605196E-1
2.377285951E0,-1.148094088E-1,-3.111814559E-1,-8.712902069E-1,9.322884336E-1
2.379730013E0,-6.471849978E-2,-1.334197968E-1,-9.458157420E-1,9.573697009E-1
2.382174909E0,-1.279500127E-2,3.640059382E-2,-1.012400150E0,1.013135124E0
2.384620586E0,3.912850097E-2,1.995014697E-1,-1.067988753E0,1.087166893E0
2.387065482E0,8.799767494E-2,3.497741818E-1,-1.114414454E0,1.171326233E0
2.389509597E0,1.344234049E-1,4.872187674E-1,-1.151066422E0,1.257141873E0
2.391954493E0,1.771839410E-1,6.148895025E-1,-1.179777026E0,1.342146445E0
2.394400170E0,2.162792832E-1,7.278994918E-1,-1.203600764E0,1.423119531E0
2.396845066E0,2.529311478E-1,8.280813098E-1,-1.218261480E0,1.494608262E0
2.399289128E0,2.877504230E-1,9.154349566E-1,-1.228035331E0,1.558490372E0
2.401734024E0,3.207371235E-1,9.893496037E-1,-1.236587405E0,1.615807337E0
2.404179701E0,3.494477570E-1,1.049214363E0,-1.240863562E0,1.662139252E0
2.406624597E0,3.744932115E-1,1.097472668E0,-1.244528651E0,1.701041735E0
2.409068711E0,3.952626288E-1,1.131681085E0,-1.246361256E0,1.729263139E0
2.411513607E0,4.135885537E-1,1.151839614E0,-1.250637293E0,1.749823884E0
2.413959284E0,4.270275831E-1,1.160391688E0,-1.254913449E0,1.761723359E0
2.416404180E0,4.355796874E-1,1.154893875E0,-1.264076352E0,1.766748016E0
2.418848243E0,4.398557544E-1,1.134735346E0,-1.272017598E0,1.760433515E0
2.421293138E0,4.422992170E-1,1.099916101E0,-1.285456657E0,1.748668878E0
2.423738816E0,4.404666126E-1,1.049825191E0,-1.298284769E0,1.726756240E0
2.426183711E0,4.325253665E-1,9.899604321E-1,-1.314167261E0,1.701215871E0
2.428627826E0,4.196972251E-1,9.191001058E-1,-1.333104134E0,1.672739488E0
2.431072670E0,4.013712704E-1,8.390768766E-1,-1.349597454E0,1.639073577E0
2.433518399E0,3.806018829E-1,7.505014539E-1,-1.366090775E0,1.604466961E0
2.435963243E0,3.598324656E-1,6.582608819E-1,-1.381973267E0,1.572462051E0
2.438407357E0,3.353978693E-1,5.605225563E-1,-1.394801378E0,1.540177961E0
2.440852253E0,3.085198402E-1,4.633950293E-1,-1.403964400E0,1.510309731E0
2.443297930E0,2.846961021E-1,3.632132113E-1,-1.410073042E0,1.483671692E0
2.445742826E0,2.602615356E-1,2.660857141E-1,-1.410683870E0,1.458960814E0
2.448186888E0,2.358269542E-1,1.738451570E-1,-1.405797005E0,1.436001988E0
2.450631784E0,2.101706266E-1,8.954583108E-2,-1.396023154E0,1.414592095E0
2.453077461E0,1.924555451E-1,1.440946572E-2,-1.380140662E0,1.393569165E0
2.455522357E0,1.765730679E-1,-4.912046716E-2,-1.357538700E0,1.369854806E0
2.457966472E0,1.619123220E-1,-1.004330963E-1,-1.333104134E0,1.346651045E0
2.460411368E0,1.533602029E-1,-1.401393116E-1,-1.303782582E0,1.320230056E0
2.462857045E0,1.484732926E-1,-1.706825495E-1,-1.272628427E0,1.292578804E0
2.465301941E0,1.521384865E-1,-1.932845414E-1,-1.239030957E0,1.263211283E0
2.467746003E0,1.551928073E-1,-2.097778916E-1,-1.201768160E0,1.229771638E0
2.470190899E0,1.619123220E-1,-2.213843167E-1,-1.162672877E0,1.194585633E0
2.472636576E0,1.674101055E-1,-2.256603688E-1,-1.123577476E0,1.158177486E0
2.475081472E0,1.722970158E-1,-2.268821001E-1,-1.082649589E0,1.119505195E0
2.477525586E0,1.735187471E-1,-2.299364209E-1,-1.038056374E0,1.077283875E0
2.479970482E0,1.759622097E-1,-2.360450774E-1,-9.934631586E-1,1.036170365E0
2.482416159E0,1.790165305E-1,-2.488732338E-1,-9.470374584E-1,9.954218967E-1
2.484861003E0,1.826817244E-1,-2.641448677E-1,-9.036660790E-1,9.590398876E-1
2.487305118E0,1.863469034E-1,-2.861360013E-1,-8.590729237E-1,9.244486291E-1
2.489750013E0,1.900120974E-1,-3.148466349E-1,-8.175341487E-1,8.964346518E-1
2.492195691E0,1.942881495E-1,-3.490550518E-1,-7.790496349E-1,8.755030828E-1
2.494640586E0,1.955098808E-1,-3.869286776E-1,-7.430086136E-1,8.602323610E-1
2.497084701E0,1.948990077E-1,-4.278566241E-1,-7.124654055E-1,8.536122469E-1
2.499529545E0,1.918446869E-1,-4.687845409E-1,-6.849764585E-1,8.519131871E-1
2.501975222E0,1.826817244E-1,-5.060472488E-1,-6.623744965E-1,8.533442471E-1
2.504420118E0,1.698535532E-1,-5.408665538E-1,-6.464920044E-1,8.598481088E-1
2.506864232E0,1.576362699E-1,-5.732423663E-1,-6.367181540E-1,8.711291590E-1
2.509309128E0,1.484732926E-1,-6.062290668E-1,-6.324421167E-1,8.885612141E-1
2.511754805E0,1.454189718E-1,-6.367723346E-1,-6.342747211E-1,9.104559876E-1
2.514199701E0,1.454189718E-1,-6.618177891E-1,-6.391616464E-1,9.314918537E-1
2.516643763E0,1.521384865E-1,-6.770893931E-1,-6.458811760E-1,9.480288281E-1
2.519088659E0,1.619123220E-1,-6.813654304E-1,-6.526006460E-1,9.572680152E-1
2.521534336E0,1.753513366E-1,-6.673155427E-1,-6.580984592E-1,9.534944713E-1
2.523979232E0,1.924555451E-1,-6.331071258E-1,-6.605418921E-1,9.349755936E-1
2.526423347E0,2.077271640E-1,-5.665228963E-1,-6.580984592E-1,8.928562867E-1
2.528868243E0,2.199444622E-1,-4.681736827E-1,-6.507680416E-1,8.313009128E-1
2.531313920E0,2.339943498E-1,-3.386703730E-1,-6.403833628E-1,7.612764469E-1
2.533758816E0,2.572071850E-1,-1.896193475E-1,-6.263334751E-1,7.031391434E-1
2.536202878E0,2.889721692E-1,-3.079452552E-2,-6.092292666E-1,6.749914938E-1
2.538647774E0,3.317326903E-1,1.268085688E-1,-5.884598494E-1,6.873223300E-1
2.541093451E0,3.812127411E-1,2.758595347E-1,-5.621926785E-1,7.331318058E-1
2.543538347E0,4.331362247E-1,4.133041203E-1,-5.310385823E-1,8.002682431E-1
2.545982461E0,4.807837009E-1,5.293684602E-1,-4.962193072E-1,8.704122785E-1
2.548427305E0,5.217116475E-1,6.258850694E-1,-4.559022486E-1,9.336819713E-1
2.550873034E0,5.528657436E-1,7.010214329E-1,-4.125308394E-1,9.835005202E-1
2.553317878E0,5.730242729E-1,7.523340583E-1,-3.618290722E-1,1.012562902E0
2.555761993E0,5.852415562E-1,7.810447216E-1,-3.147924840E-1,1.025491513E0
2.558206888E0,5.944045186E-1,7.804338336E-1,-2.653124630E-1,1.016260008E0
2.560652566E0,5.968480110E-1,7.584426999E-1,-2.170541286E-1,9.892296862E-1
2.563097461E0,5.950154066E-1,7.175147533E-1,-1.736827344E-1,9.481753253E-1
2.565541524E0,5.846306682E-1,6.668130159E-1,-1.290896088E-1,8.961566512E-1
2.567986420E0,5.681373477E-1,6.038939357E-1,-8.938340843E-2,8.339408403E-1
2.570432097E0,5.449244976E-1,5.324227810E-1,-5.273152515E-2,7.636735818E-1
2.572876993E0,5.180464387E-1,4.517885745E-1,-2.096656151E-2,6.876951544E-1
2.575321107E0,4.923901260E-1,3.601588905E-1,8.965810761E-3,6.101170776E-1
2.577766003E0,4.630686045E-1,2.648639977E-1,3.401126713E-2,5.345486283E-1
2.580211680E0,4.337471128E-1,1.628495902E-1,5.600239709E-2,4.666827780E-1
2.582656576E0,4.038147330E-1,6.083518267E-2,7.310660183E-2,4.148636322E-1
2.585100638E0,3.738823533E-1,-3.445971385E-2,8.837822080E-2,3.857281373E-1
2.587545534E0,3.457825780E-1,-1.230351031E-1,1.024281085E-1,3.810442825E-1
2.589991211E0,3.213479817E-1,-1.993931830E-1,1.115910858E-1,3.943028496E-1
2.592436107E0,2.975242734E-1,-2.598688006E-1,1.195323169E-1,4.127232264E-1
2.594880222E0,2.730896771E-1,-3.007967472E-1,1.262518317E-1,4.254364581E-1
2.597325118E0,2.523202896E-1,-3.221770227E-1,1.323604882E-1,4.300963396E-1
2.599770795E0,2.339943498E-1,-3.295073807E-1,1.348039508E-1,4.260288428E-1
2.602215638E0,2.162792832E-1,-3.270639181E-1,1.354148239E-1,4.148309407E-1
2.604659753E0,2.016185224E-1,-3.179009557E-1,1.372474134E-1,4.006842880E-1
2.607104649E0,1.863469034E-1,-3.038510680E-1,1.366365403E-1,3.817331320E-1
2.609550326E0,1.735187471E-1,-2.898011804E-1,1.323604882E-1,3.627847551E-1
2.611995222E0,1.588579863E-1,-2.775838673E-1,1.311387420E-1,3.456675178E-1
2.614439336E0,1.429755092E-1,-2.678100467E-1,1.299170256E-1,3.302160669E-1
2.616884180E0,1.295364797E-1,-2.647557259E-1,1.268626899E-1,3.208885103E-1
2.619329909E0,1.179300472E-1,-2.659774423E-1,1.268626899E-1,3.174045335E-1
2.621774753E0,1.087670773E-1,-2.720861137E-1,1.280844212E-1,3.197917280E-1
2.624218868E0,9.899324179E-2,-2.800273299E-1,1.335822195E-1,3.256672793E-1
2.626663763E0,8.860854059E-2,-2.849142551E-1,1.390800029E-1,3.291972865E-1
2.629109441E0,7.516951859E-2,-2.824707925E-1,1.519081593E-1,3.294181143E-1
2.631554336E0,5.745444074E-2,-2.708643675E-1,1.677906513E-1,3.237625998E-1
2.633998399E0,3.912850097E-2,-2.470406443E-1,1.855057180E-1,3.114040638E-1
2.636443295E0,2.080255747E-2,-2.177191377E-1,2.081077248E-1,3.018993117E-1
2.638888972E0,1.163958758E-2,-1.877867579E-1,2.343748957E-1,3.005510575E-1
2.641333868E0,6.752669811E-3,-1.578543931E-1,2.618637979E-1,3.058369772E-1
2.643777982E0,7.363534532E-3,-1.328089386E-1,2.924070358E-1,3.212387125E-1
2.646222878E0,1.041785814E-2,-1.077634841E-1,3.229502738E-1,3.406147084E-1
2.648668555E0,1.530477498E-2,-8.516147733E-2,3.553261161E-1,3.657093957E-1
2.651113451E0,1.469391119E-2,-5.950516835E-2,3.883127868E-1,3.931203333E-1
2.653557513E0,7.974399254E-3,-3.140538931E-2,4.243538082E-1,4.255890553E-1
2.656002409E0,-2.410301007E-3,5.857357290E-3,4.610056877E-1,4.610491973E-1
2.658448086E0,-1.829278469E-2,5.106134713E-2,4.988793135E-1,5.018191473E-1
2.660892982E0,-3.845132142E-2,9.993052483E-2,5.367529392E-1,5.473283582E-1
2.663337097E0,-5.616639555E-2,1.524648964E-1,5.758482814E-1,5.983322253E-1
2.665781941E0,-7.327061146E-2,2.007232010E-1,6.149436235E-1,6.510100199E-1
2.668227670E0,-8.732049912E-2,2.422619909E-1,6.546498537E-1,7.034786228E-1
2.670672513E0,-9.709433466E-2,2.715834975E-1,6.913017035E-1,7.490547050E-1
2.673116628E0,-9.892692417E-2,2.807464600E-1,7.279536128E-1,7.864614253E-1
2.675561524E0,-9.953778982E-2,2.746378183E-1,7.609403133E-1,8.150851878E-1
2.678007201E0,-1.074790359E-1,2.587553263E-1,7.945378423E-1,8.424941809E-1
2.680452097E0,-1.239723787E-1,2.367642075E-1,8.269137144E-1,8.690297646E-1
2.682896159E0,-1.526830196E-1,2.086644471E-1,8.568460941E-1,8.950073659E-1
2.685341055E0,-1.917783618E-1,1.805646718E-1,8.855566978E-1,9.239010801E-1
2.687786732E0,-2.412583977E-1,1.524648964E-1,9.112130404E-1,9.548614371E-1
2.690231628E0,-2.980688214E-1,1.298628896E-1,9.338150024E-1,9.887971739E-1
2.692675743E0,-3.548792601E-1,1.103152186E-1,9.496974945E-1,1.019820606E0
2.695120638E0,-4.049701691E-1,9.137842059E-2,9.606930614E-1,1.046557219E0
2.697566316E0,-4.422329068E-1,6.450037658E-2,9.674125910E-1,1.065653491E0
2.700011211E0,-4.642240405E-1,3.029194660E-2,9.692451954E-1,1.075108279E0
2.702455274E0,-4.727761447E-1,-9.414259344E-3,9.649690986E-1,1.074602844E0
2.704900170E0,-4.727761447E-1,-5.400738493E-2,9.600822330E-1,1.071537202E0
2.707345847E0,-4.703326821E-1,-9.921136498E-2,9.527518153E-1,1.067141860E0
2.709790743E0,-4.715544283E-1,-1.407501698E-1,9.435888529E-1,1.064205860E0
2.712234857E0,-4.764413238E-1,-1.810672432E-1,9.368693233E-1,1.066539174E0
2.714679753E0,-4.831608534E-1,-2.274929732E-1,9.270955324E-1,1.069908215E0
2.717125430E0,-4.917129576E-1,-2.781947553E-1,9.197651148E-1,1.079417353E0
2.719570326E0,-5.002650619E-1,-3.276748061E-1,9.093804359E-1,1.088397302E0
2.722014388E0,-5.118714571E-1,-3.759331107E-1,8.996065855E-1,1.101194852E0
2.724459284E0,-5.240888000E-1,-4.193044901E-1,8.886110187E-1,1.113604449E0
2.726904961E0,-5.356951952E-1,-4.565672576E-1,8.757828474E-1,1.123574029E0
2.729349857E0,-5.448581576E-1,-4.889430702E-1,8.592895269E-1,1.128855274E0
2.731793972E0,-5.527994037E-1,-5.170428157E-1,8.421853185E-1,1.132341187E0
2.734238816E0,-5.582972169E-1,-5.402556658E-1,8.226376176E-1,1.131505465E0
2.736684545E0,-5.613515377E-1,-5.591924787E-1,7.994247675E-1,1.125562853E0
2.739129388E0,-5.662384629E-1,-5.671337247E-1,7.731575966E-1,1.113570531E0
2.741573503E0,-5.686818957E-1,-5.677446127E-1,7.462795377E-1,1.096661384E0
2.744018399E0,-5.729579329E-1,-5.573598742E-1,7.194014788E-1,1.075392631E0
2.746464076E0,-5.747905374E-1,-5.341470242E-1,6.925234795E-1,1.046559112E0
2.748908972E0,-5.741797090E-1,-5.048255324E-1,6.662562490E-1,1.014114661E0
2.751353034E0,-5.686818957E-1,-4.675628245E-1,6.424325705E-1,9.771047543E-1
2.753797930E0,-5.595189333E-1,-4.235805571E-1,6.222740412E-1,9.379269201E-1
2.756243607E0,-5.473016500E-1,-3.741005063E-1,6.063915491E-1,8.984436520E-1
2.758688503E0,-5.308082700E-1,-3.179009557E-1,5.947850943E-1,8.582469024E-1
2.761132618E0,-5.130932331E-1,-2.568144798E-1,5.905090570E-1,8.233585424E-1
2.763577513E0,-4.941564202E-1,-1.969497353E-1,5.850112438E-1,7.907072285E-1
2.766023191E0,-4.752196074E-1,-1.456370950E-1,5.844004154E-1,7.671816501E-1
2.768468086E0,-4.520067573E-1,-1.114286631E-1,5.813460946E-1,7.447749575E-1
2.770912149E0,-4.251286983E-1,-1.065417528E-1,5.752374530E-1,7.231761076E-1
2.773357045E0,-3.988615274E-1,-1.260894239E-1,5.691288114E-1,7.063261745E-1
2.775802722E0,-3.762595057E-1,-1.682390869E-1,5.605766773E-1,6.957886297E-1
2.778247618E0,-3.585444391E-1,-2.329907566E-1,5.471376777E-1,6.944051021E-1
2.780691732E0,-3.414402306E-1,-3.191227019E-1,5.324769020E-1,7.084859781E-1
2.783136576E0,-3.341098428E-1,-4.168610573E-1,5.159835815E-1,7.427257802E-1
2.785582305E0,-3.316663802E-1,-5.164319277E-1,4.933815300E-1,7.874832429E-1
2.788027201E0,-3.341098428E-1,-6.166138053E-1,4.689469337E-1,8.436546679E-1
2.790471263E0,-3.347207308E-1,-7.137412429E-1,4.396254420E-1,9.026267549E-1
2.792916159E0,-3.334989846E-1,-8.047600985E-1,4.023626745E-1,9.595603736E-1
2.795361836E0,-3.255577385E-1,-8.841724992E-1,3.589912951E-1,1.008277541E0
2.797806732E0,-3.157839179E-1,-9.477024674E-1,3.107329905E-1,1.046142648E0
2.800250795E0,-3.029557467E-1,-9.880195260E-1,2.545334101E-1,1.064308238E0
2.802695691E0,-2.895167172E-1,-1.006345510E0,1.903926432E-1,1.064331046E0
2.805141368E0,-2.742451131E-1,-1.000847697E0,1.195323169E-1,1.044602542E0
2.807586263E0,-2.571409047E-1,-9.690827131E-1,4.378510267E-2,1.003573557E0
2.810030378E0,-2.363714874E-1,-9.134940505E-1,-3.868163377E-2,9.443723467E-1
2.812475274E0,-2.113260329E-1,-8.353033662E-1,-1.266461462E-1,8.708786667E-1
2.814920951E0,-1.826153845E-1,-7.375649810E-1,-2.170541286E-1,7.902296974E-1
2.817365847E0,-1.520721465E-1,-6.227224469E-1,-3.050186634E-1,7.098912372E-1
2.819809909E0,-1.178637370E-1,-4.901648164E-1,-3.923723102E-1,6.388344367E-1
2.822254805E0,-8.060098439E-2,-3.460007310E-1,-4.760607779E-1,5.940091656E-1
2.824700482E0,-4.211650789E-2,-1.920628101E-1,-5.542514324E-1,5.880957180E-1
2.827145378E0,-3.632030450E-3,-3.384884819E-2,-6.257225871E-1,6.266479811E-1
2.829589493E0,3.729590774E-2,1.231433898E-1,-6.868090630E-1,6.987574459E-1
2.832034388E0,7.516951859E-2,2.764704227E-1,-7.411760688E-1,7.946246385E-1
2.834480066E0,1.118214056E-1,4.236887991E-1,-7.876017690E-1,9.012950526E-1
2.836924961E0,1.466407031E-1,5.593007803E-1,-8.248645067E-1,1.007334261E0
2.839369024E0,1.796273887E-1,6.802520156E-1,-8.541859984E-1,1.106635678E0
2.841813920E0,2.083380371E-1,7.859316468E-1,-8.780097365E-1,1.196659680E0
2.844259597E0,2.333834916E-1,8.726744056E-1,-8.969465494E-1,1.273004943E0
2.846704493E0,2.547637522E-1,9.429238439E-1,-9.116073251E-1,1.336053090E0
2.849148607E0,2.718679607E-1,9.924038649E-1,-9.207702875E-1,1.380795257E0
2.851593451E0,2.853069901E-1,1.025390625E0,-9.268789291E-1,1.411357702E0
2.854039180E0,2.969134152E-1,1.043716550E0,-9.299332500E-1,1.429082804E0
2.856484024E0,3.042437732E-1,1.047381759E0,-9.329875708E-1,1.435283466E0
2.858928138E0,3.097415566E-1,1.038829565E0,-9.323766828E-1,1.429836695E0
2.861373034E0,3.152393401E-1,1.017449379E0,-9.317658544E-1,1.415191396E0
2.863818711E0,3.201262653E-1,9.875169992E-1,-9.311549664E-1,1.394532259E0
2.866263607E0,3.219588697E-1,9.533085823E-1,-9.287115335E-1,1.369291744E0
2.868707670E0,3.225697279E-1,9.178783894E-1,-9.281006455E-1,1.344590189E0
2.871152566E0,3.213479817E-1,8.855025768E-1,-9.262680411E-1,1.321117642E0
2.873598243E0,3.207371235E-1,8.519049883E-1,-9.244354367E-1,1.297380163E0
2.876043138E0,3.213479817E-1,8.164748549E-1,-9.256572127E-1,1.275436000E0
2.878487253E0,3.213479817E-1,7.810447216E-1,-9.262680411E-1,1.253502240E0
2.880932149E0,3.225697279E-1,7.468363047E-1,-9.256572127E-1,1.232338010E0
2.883377826E0,3.268457651E-1,7.083517909E-1,-9.287115335E-1,1.212887269E0
2.885822722E0,3.292892277E-1,6.680347323E-1,-9.311549664E-1,1.192372161E0
2.888266784E0,3.286783695E-1,6.277176738E-1,-9.342092872E-1,1.172521190E0
2.890711680E0,3.292892277E-1,5.812919140E-1,-9.366527796E-1,1.150499941E0
2.893157357E0,3.268457651E-1,5.360879302E-1,-9.397071004E-1,1.130162757E0
2.895602253E0,3.219588697E-1,4.878295958E-1,-9.415396452E-1,1.108211231E0
2.898046368E0,3.134067655E-1,4.414038956E-1,-9.397071004E-1,1.084486346E0
2.900491263E0,3.054655194E-1,3.961999118E-1,-9.378744960E-1,1.062963839E0
2.902936941E0,2.975242734E-1,3.479415774E-1,-9.354310036E-1,1.041448605E0
2.905381836E0,2.938590944E-1,2.996832728E-1,-9.299332500E-1,1.020264221E0
2.907825899E0,2.920264900E-1,2.483706623E-1,-9.207702875E-1,9.973892816E-1
2.910270795E0,2.938590944E-1,1.946145594E-1,-9.103855491E-1,9.762324734E-1
2.912716472E0,2.956916690E-1,1.475779712E-1,-8.987791538E-1,9.576099352E-1
2.915161368E0,2.969134152E-1,1.017631143E-1,-8.822857738E-1,9.364515439E-1
2.917605482E0,2.975242734E-1,5.839172006E-2,-8.657924533E-1,9.173477304E-1
2.920050326E0,2.981351316E-1,1.807465218E-2,-8.444122076E-1,8.956803147E-1
2.922496055E0,2.975242734E-1,-1.918809488E-2,-8.218101859E-1,8.742201427E-1
2.924940899E0,2.987459898E-1,-5.522911623E-2,-8.010407686E-1,8.567180019E-1
2.927385013E0,3.018003106E-1,-9.249186516E-2,-7.772170901E-1,8.388710138E-1
2.929829909E0,3.060763776E-1,-1.321980655E-1,-7.546150684E-1,8.249866538E-1
2.932275586E0,3.109633029E-1,-1.725151390E-1,-7.338456511E-1,8.154686313E-1
2.934720482E0,3.176828027E-1,-2.140539438E-1,-7.149088383E-1,8.110709593E-1
2.937164545E0,3.213479817E-1,-2.531493008E-1,-6.978046298E-1,8.088760073E-1
2.939609441E0,3.231805861E-1,-2.916337848E-1,-6.843656301E-1,8.110809278E-1
2.942055118E0,3.219588697E-1,-3.295073807E-1,-6.715374589E-1,8.143679675E-1
2.944500013E0,3.195154071E-1,-3.637158275E-1,-6.605418921E-1,8.189596386E-1
2.946944128E0,3.152393401E-1,-3.960916400E-1,-6.538223624E-1,8.268906278E-1
2.949389024E0,3.109633029E-1,-4.254131615E-1,-6.489354968E-1,8.359376847E-1
2.951834701E0,3.060763776E-1,-4.461825490E-1,-6.477137208E-1,8.439755210E-1
2.954279597E0,3.036329150E-1,-4.620650411E-1,-6.477137208E-1,8.516044348E-1
2.956723659E0,3.060763776E-1,-4.724497497E-1,-6.458811760E-1,8.567695189E-1
2.959168555E0,3.097415566E-1,-4.779475033E-1,-6.440485716E-1,8.597512491E-1
2.961614232E0,3.158501983E-1,-4.742823243E-1,-6.416050792E-1,8.581154634E-1
2.964059128E0,3.250131905E-1,-4.571781158E-1,-6.385507584E-1,8.499367474E-1
2.966503243E0,3.323435485E-1,-4.272457361E-1,-6.348856091E-1,8.343086299E-1
2.968948138E0,3.402847946E-1,-3.759331107E-1,-6.263334751E-1,8.058616923E-1
2.971393816E0,3.439499736E-1,-3.050728142E-1,-6.159487963E-1,7.686116874E-1
2.973838711E0,3.494477570E-1,-2.140539438E-1,-6.037314534E-1,7.296742380E-1
2.976282774E0,3.610542119E-1,-1.138721257E-1,-5.896815658E-1,7.007505647E-1
2.978727670E0,3.830453157E-1,-9.414259344E-3,-5.725773573E-1,6.889536793E-1
2.981173347E0,4.105342329E-1,9.504359961E-2,-5.530297160E-1,6.952794467E-1
2.983618243E0,4.398557544E-1,1.958362907E-1,-5.304276943E-1,7.163647649E-1
2.986062357E0,4.728424549E-1,2.905203104E-1,-5.059931278E-1,7.510067132E-1
2.988507201E0,5.003313422E-1,3.784848154E-1,-4.778933823E-1,7.886471279E-1
2.990952930E0,5.223224759E-1,4.554537833E-1,-4.461283982E-1,8.241901875E-1
2.993397774E0,5.412592888E-1,5.189837217E-1,-4.137525856E-1,8.564443492E-1
2.995841888E0,5.546982884E-1,5.678529143E-1,-3.819876015E-1,8.809436141E-1
2.998286784E0,5.644721389E-1,5.996178985E-1,-3.477791846E-1,8.939355575E-1
3.000732461E0,5.718025565E-1,6.093916893E-1,-3.166250885E-1,8.936262313E-1
3.003177357E0,5.754677057E-1,6.032830477E-1,-2.866927087E-1,8.816497180E-1
3.005621420E0,5.742459893E-1,5.837354064E-1,-2.592038214E-1,8.588900407E-1
3.008066316E0,5.675264597E-1,5.586899519E-1,-2.286605537E-1,8.285568138E-1
3.010511993E0,5.565308928E-1,5.244815350E-1,-2.023933679E-1,7.910566292E-1
3.012956888E0,5.406484008E-1,4.866078794E-1,-1.767370552E-1,7.485478664E-1
3.015401003E0,5.223224759E-1,4.395712912E-1,-1.529133320E-1,6.995900056E-1
3.017845899E0,5.046074390E-1,3.876477778E-1,-1.327547878E-1,6.500179235E-1
3.020291576E0,4.838380218E-1,3.320591152E-1,-1.125962734E-1,5.975285835E-1
3.022736472E0,4.630686045E-1,2.721943557E-1,-9.549206495E-2,5.455648763E-1
3.025180534E0,4.429100752E-1,2.123296261E-1,-7.838784158E-2,4.973910519E-1
3.027625430E0,4.227515459E-1,1.561300755E-1,-6.555968523E-2,4.554048115E-1
3.030071107E0,3.983169496E-1,1.090935022E-1,-5.150979385E-2,4.161863085E-1
3.032516003E0,3.732714951E-1,7.488507032E-2,-3.868163377E-2,3.826691150E-1
3.034960118E0,3.482260406E-1,5.350480229E-2,-2.646434307E-2,3.533051099E-1
3.037405013E0,3.256240487E-1,4.983961582E-2,-1.363618299E-2,3.296982771E-1
3.039850691E0,3.042437732E-1,5.778086185E-2,-1.418889035E-3,3.096851866E-1
3.042295534E0,2.840852439E-1,7.549594343E-2,1.263099909E-2,2.942169360E-1
3.044739649E0,2.675918937E-1,9.993052483E-2,2.545915730E-2,2.867746503E-1
3.047184545E0,2.504876852E-1,1.231433898E-1,3.767645359E-2,2.816520727E-1
3.049630222E0,2.327726185E-1,1.433019191E-1,5.172634125E-2,2.781980344E-1
3.052075118E0,2.150575519E-1,1.573518068E-1,6.699796021E-2,2.747691183E-1
3.054519180E0,1.942881495E-1,1.628495902E-1,8.043697476E-2,2.659661275E-1
3.056964076E0,1.722970158E-1,1.549083441E-1,9.570859373E-2,2.506850447E-1
3.059409753E0,1.503058821E-1,1.384149939E-1,1.091476232E-1,2.316544245E-1
3.061854649E0,1.270930320E-1,1.103152186E-1,1.238083690E-1,2.089272564E-1
3.064298763E0,9.899324179E-2,8.221544325E-2,1.384691447E-1,1.890310690E-1
3.066743659E0,6.967173517E-2,5.167221278E-2,1.531298906E-1,1.759912828E-1
3.069189336E0,4.035022855E-2,2.296156995E-2,1.677906513E-1,1.740950238E-1
3.071634232E0,1.163958758E-2,-3.305612598E-3,1.836731285E-1,1.840712503E-1
3.074078295E0,-1.157327183E-2,-2.835106663E-2,1.977230161E-1,2.000802707E-1
3.076523191E0,-3.051007912E-2,-5.217479169E-2,2.148272246E-1,2.231676730E-1
3.078968868E0,-4.272737354E-2,-7.233332098E-2,2.313205749E-1,2.461035273E-1
3.081413763E0,-5.372293666E-2,-8.699408174E-2,2.508682311E-1,2.709040301E-1
3.083857878E0,-6.288591027E-2,-9.432445467E-2,2.710267603E-1,2.937809478E-1
3.086302774E0,-7.204888016E-2,-8.638320863E-2,2.954613566E-1,3.161495107E-1
3.088748451E0,-8.609876782E-2,-6.439208239E-2,3.192850947E-1,3.369010386E-1
3.091193347E0,-9.831606597E-2,-3.323798627E-2,3.449414074E-1,3.602157508E-1
3.093637409E0,-1.117550880E-1,5.857357290E-3,3.687651157E-1,3.853715336E-1
3.096082305E0,-1.227506474E-1,4.983961582E-2,3.956431746E-1,4.172352219E-1
3.098527982E0,-1.300810128E-1,9.687620401E-2,4.225212336E-1,4.525817734E-1
3.100972878E0,-1.410765797E-1,1.487997025E-1,4.463449419E-1,4.911901464E-1
3.103416993E0,-1.471852362E-1,1.958362907E-1,4.713903964E-1,5.312478257E-1
3.105861836E0,-1.532938778E-1,2.367642075E-1,4.952141345E-1,5.699064326E-1
3.108307566E0,-1.575699300E-1,2.642531097E-1,5.208704472E-1,6.049495942E-1
3.110752461E0,-1.587916613E-1,2.721943557E-1,5.453050733E-1,6.298112272E-1
3.113196524E0,-1.557373405E-1,2.587553263E-1,5.721831322E-1,6.469945709E-1
3.115641420E0,-1.514612883E-1,2.190491408E-1,5.966176987E-1,6.533572731E-1
3.118087097E0,-1.514612883E-1,1.640713215E-1,6.198305488E-1,6.588245818E-1
3.120531993E0,-1.679546386E-1,1.133695543E-1,6.424325705E-1,6.736327071E-1
3.122976055E0,-2.015521973E-1,6.999816000E-2,6.650345325E-1,6.984224797E-1
3.125420951E0,-2.424801290E-1,2.479416318E-2,6.833604574E-1,7.255293779E-1
3.127866628E0,-2.901276052E-1,-2.040982433E-2,6.974104047E-1,7.556267999E-1
3.130311524E0,-3.383859098E-1,-5.889430270E-2,7.071841955E-1,7.861825801E-1
3.132755638E0,-3.866442144E-1,-8.455061913E-2,7.126820087E-1,8.152043923E-1
3.135200534E0,-4.275721610E-1,-1.004330963E-1,7.139037251E-1,8.381904846E-1
3.137646211E0,-4.605588615E-1,-1.040982902E-1,7.151254416E-1,8.569453402E-1
3.140091107E0,-4.788847864E-1,-9.798964858E-2,7.126820087E-1,8.642038275E-1
3.142535170E0,-4.849934280E-1,-8.699408174E-2,7.096276879E-1,8.639201647E-1
3.144980066E0,-4.825499654E-1,-7.111158967E-2,7.065733671E-1,8.585786221E-1
3.147425743E0,-4.770522118E-1,-5.217479169E-2,7.065733671E-1,8.541352029E-1
3.149870638E0,-4.703326821E-1,-3.018365987E-2,7.084059119E-1,8.508600480E-1
3.152314753E0,-4.685000777E-1,-4.527342040E-3,7.126820087E-1,8.528941700E-1
3.154759649E0,-4.727761447E-1,1.624205895E-2,7.206232548E-1,8.620202798E-1
3.157205326E0,-4.801065326E-1,3.517886251E-2,7.285645008E-1,8.732388372E-1
3.159650170E0,-4.874368906E-1,4.739616066E-2,7.383382916E-1,8.859935391E-1
3.162094284E0,-4.965998530E-1,4.922875017E-2,7.511664629E-1,9.018236739E-1
3.164539180E0,-5.008759499E-1,4.800702631E-2,7.627729177E-1,9.137854867E-1
3.166984857E0,-5.020976663E-1,4.189837724E-2,7.749902010E-1,9.243740326E-1
3.169429753E0,-5.020976663E-1,3.029194660E-2,7.865965962E-1,9.336776069E-1
3.171873868E0,-4.984324574E-1,1.440946572E-2,7.963704467E-1,9.396001467E-1
3.174318711E0,-4.941564202E-1,-3.916478250E-3,8.049225807E-1,9.445137730E-1
3.176764441E0,-4.953781366E-1,-1.552290656E-2,8.104203343E-1,9.499587239E-1
3.179209284E0,-5.014867783E-1,-2.102068998E-2,8.140855432E-1,9.563817908E-1
3.181653399E0,-5.124823451E-1,-1.918809488E-2,8.146964312E-1,9.626716013E-1
3.184098295E0,-5.283648372E-1,-1.430117711E-2,8.128638268E-1,9.695986415E-1
3.186543972E0,-5.411930084E-1,-6.970800925E-3,8.079769015E-1,9.725045696E-1
3.188988868E0,-5.527994037E-1,2.192170825E-3,8.006465435E-1,9.729475186E-1
3.191432930E0,-5.576863289E-1,1.074427553E-2,7.914835215E-1,9.682848990E-1
3.193877826E0,-5.546320081E-1,1.624205895E-2,7.823205590E-1,9.591172639E-1
3.196323555E0,-5.442473292E-1,1.685292460E-2,7.725467086E-1,9.451547986E-1
3.198768399E0,-5.289757252E-1,1.807465218E-2,7.621620297E-1,9.279186228E-1
3.201212513E0,-5.106497407E-1,1.563119330E-2,7.554425001E-1,9.119763499E-1
3.203657409E0,-4.953781366E-1,1.318773441E-2,7.487230301E-1,8.978639042E-1
3.206103086E0,-4.813282490E-1,1.502032764E-2,7.432252169E-1,8.855993544E-1
3.208547982E0,-4.788847864E-1,1.013340987E-2,7.377274632E-1,8.795880483E-1
3.210992045E0,-4.691109657E-1,-6.359937135E-3,7.328405380E-1,8.701498728E-1
3.213436941E0,-4.727761447E-1,-3.140538931E-2,7.255101800E-1,8.665267467E-1
3.215882618E0,-4.568936527E-1,-6.378121674E-2,7.157363296E-1,8.515270676E-1
3.218327513E0,-4.568936527E-1,-1.193699092E-1,7.004647255E-1,8.447791526E-1
3.220771628E0,-4.355134070E-1,-1.786237955E-1,6.827496290E-1,8.292921342E-1
3.223216524E0,-4.269613028E-1,-2.604796588E-1,6.589258909E-1,8.272417642E-1
3.225662201E0,-4.025267065E-1,-3.484441936E-1,6.320478320E-1,8.263931071E-1
3.228107045E0,-3.842007518E-1,-4.529020488E-1,6.021154523E-1,8.457384356E-1
3.230551159E0,-3.695400059E-1,-5.543055534E-1,5.654636025E-1,8.738212336E-1
3.232996055E0,-3.493814766E-1,-6.587634683E-1,5.257573724E-1,9.123911102E-1
3.235441732E0,-3.451054096E-1,-7.607778311E-1,4.811642468E-1,9.640537767E-1
3.237886628E0,-3.267794847E-1,-8.469097614E-1,4.359602332E-1,1.007026465E0
3.240330743E0,-3.267794847E-1,-9.305982590E-1,3.822041452E-1,1.057770277E0
3.242775586E0,-3.066209257E-1,-9.855760932E-1,3.253937364E-1,1.082246604E0
3.245221316E0,-2.992905676E-1,-1.031390905E0,2.636964023E-1,1.105838070E0
3.247666159E0,-2.760777175E-1,-1.046662569E0,1.989447474E-1,1.100590956E0
3.250110274E0,-2.565300465E-1,-1.048495173E0,1.293061525E-1,1.087138388E0
3.252555170E0,-2.320954353E-1,-1.022228003E0,5.600239709E-2,1.049740277E0
3.255000847E0,-1.966652721E-1,-9.739696383E-1,-1.913396642E-2,9.938109450E-1
3.257445743E0,-1.752850115E-1,-9.098288417E-1,-9.854638577E-2,9.317857836E-1
3.259889805E0,-1.294701546E-1,-8.218643069E-1,-1.761261970E-1,8.504374740E-1
3.262334701E0,-1.062573045E-1,-7.271803021E-1,-2.524842918E-1,7.770650708E-1
3.264780378E0,-5.983158574E-2,-6.074507833E-1,-3.270097971E-1,6.924678188E-1
3.267225274E0,-3.295353800E-2,-4.907756746E-1,-3.978700936E-1,6.326510174E-1
3.269669388E0,9.196128696E-3,-3.557745814E-1,-4.632326365E-1,5.841614478E-1
3.272114284E0,4.157195985E-2,-2.281038314E-1,-5.230973363E-1,5.721803990E-1
3.274559961E0,7.578038424E-2,-9.493531287E-2,-5.768534541E-1,5.895042729E-1
3.277004857E0,1.185409129E-1,3.334626555E-2,-6.238900423E-1,6.359266517E-1
3.279448920E0,1.448080987E-1,1.512431651E-1,-6.648179293E-1,6.970127399E-1
3.281893816E0,1.894012243E-1,2.673074305E-1,-6.978046298E-1,7.708809166E-1
3.284339493E0,2.071163058E-1,3.650457859E-1,-7.283478975E-1,8.406225370E-1
3.286784388E0,2.431573272E-1,4.682819545E-1,-7.472847104E-1,9.147939184E-1
3.289228503E0,2.578180730E-1,5.458617806E-1,-7.656106353E-1,9.749845574E-1
3.291673399E0,2.828635275E-1,6.222198606E-1,-7.802714109E-1,1.037300730E0
3.294119076E0,2.981351316E-1,6.759759784E-1,-7.924886942E-1,1.083451157E0
3.296563972E0,3.115741611E-1,7.266777158E-1,-8.022625446E-1,1.126394314E0
3.299008034E0,3.305109739E-1,7.614970207E-1,-8.114255071E-1,1.160830121E0
3.301452930E0,3.353978693E-1,7.810447216E-1,-8.199775815E-1,1.181052845E0
3.303898607E0,3.598324656E-1,7.950946093E-1,-8.260862231E-1,1.201696005E0
3.306343503E0,3.610542119E-1,7.908185124E-1,-8.358600736E-1,1.205991760E0
3.308787566E0,3.732714951E-1,7.804338336E-1,-8.431904316E-1,1.208047467E0
3.311232461E0,3.818235993E-1,7.627187371E-1,-8.511316776E-1,1.204970649E0
3.313678191E0,3.836562037E-1,7.376732826E-1,-8.584620953E-1,1.195119711E0
3.316123034E0,3.854887784E-1,7.016322613E-1,-8.664032817E-1,1.179637264E0
3.318567149E0,3.885430992E-1,6.643695235E-1,-8.737336993E-1,1.164372441E0
3.321012045E0,3.897648454E-1,6.234415770E-1,-8.798423409E-1,1.146611782E0
3.323457722E0,3.903757036E-1,5.831245184E-1,-8.847292662E-1,1.129235701E0
3.325902618E0,3.897648454E-1,5.483052731E-1,-8.871726990E-1,1.113387042E0
3.328346680E0,3.873213828E-1,5.159294009E-1,-8.853400946E-1,1.095457933E0
3.330791576E0,3.897648454E-1,4.872187674E-1,-8.828966618E-1,1.081112981E0
3.333237253E0,3.928191662E-1,4.640058875E-1,-8.792314529E-1,1.068951032E0
3.335682149E0,3.970952332E-1,4.407930374E-1,-8.725119829E-1,1.055111504E0
3.338126263E0,4.044255912E-1,4.230779409E-1,-8.639598489E-1,1.043542823E0
3.340571159E0,4.111451209E-1,4.047520161E-1,-8.560186028E-1,1.032294703E0
3.343016836E0,4.166429043E-1,3.888695240E-1,-8.438013196E-1,1.018239404E0
3.345461732E0,4.209189415E-1,3.717653155E-1,-8.303623199E-1,1.002438920E0
3.347905795E0,4.233624041E-1,3.534393609E-1,-8.169232607E-1,9.856564923E-1
3.350350691E0,4.251950085E-1,3.290047944E-1,-8.004299402E-1,9.642214679E-1
3.352796368E0,4.264167249E-1,2.984615564E-1,-7.839365602E-1,9.409925899E-1
3.355241263E0,4.258058667E-1,2.587553263E-1,-7.656106353E-1,9.134684449E-1
3.357685378E0,4.258058667E-1,2.104970366E-1,-7.478955388E-1,8.859838461E-1
3.360130274E0,4.245841205E-1,1.542974859E-1,-7.301805019E-1,8.586285314E-1
3.362575951E0,4.209189415E-1,9.015668929E-2,-7.130762935E-1,8.329338415E-1
3.365020847E0,4.117559791E-1,2.235070802E-2,-6.965829134E-1,8.094876748E-1
3.367464909E0,3.983169496E-1,-4.912046716E-2,-6.825330257E-1,7.917831419E-1
3.369909805E0,3.806018829E-1,-1.267002821E-1,-6.697048545E-1,7.806505921E-1
3.372355482E0,3.628867865E-1,-2.024475187E-1,-6.605418921E-1,7.803764532E-1
3.374800378E0,3.433391154E-1,-2.788056135E-1,-6.532115340E-1,7.888597001E-1
3.377244441E0,3.244023323E-1,-3.551637232E-1,-6.458811760E-1,8.053202077E-1
3.379689336E0,3.085198402E-1,-4.290783405E-1,-6.397724748E-1,8.298201815E-1
3.382135066E0,2.963025272E-1,-4.913865328E-1,-6.336638331E-1,8.548600854E-1
3.384579909E0,2.865287066E-1,-5.433099866E-1,-6.281660795E-1,8.785653446E-1
3.387024024E0,2.798092067E-1,-5.824053288E-1,-6.245008707E-1,8.986047500E-1
3.389468920E0,2.779766023E-1,-6.062290668E-1,-6.177813411E-1,9.090866066E-1
3.391914597E0,2.755331397E-1,-6.135594845E-1,-6.110618711E-1,9.087190778E-1
3.394359493E0,2.773657441E-1,-6.056182384E-1,-6.000663042E-1,8.965404487E-1
3.396803555E0,2.816417813E-1,-5.824053288E-1,-5.884598494E-1,8.745301906E-1
3.399248451E0,2.840852439E-1,-5.469751954E-1,-5.744099617E-1,8.425159312E-1
3.401694128E0,2.895830274E-1,-4.981060624E-1,-5.591383576E-1,8.028721456E-1
3.404139024E0,2.938590944E-1,-4.382413030E-1,-5.420341492E-1,7.564453885E-1
3.406583138E0,3.011894524E-1,-3.710461855E-1,-5.230973363E-1,7.085345307E-1
3.409028034E0,3.091306984E-1,-2.965206802E-1,-5.041605234E-1,6.615618912E-1
3.411473711E0,3.207371235E-1,-2.201625854E-1,-4.852237403E-1,6.219211723E-1
3.413918607E0,3.353978693E-1,-1.486914158E-1,-4.626217484E-1,5.904403018E-1
3.416362670E0,3.500586450E-1,-8.088542521E-2,-4.400197566E-1,5.680676836E-1
3.418807566E0,3.671628535E-1,-2.285328321E-2,-4.125308394E-1,5.527318762E-1
3.421253243E0,3.799909949E-1,2.662676014E-2,-3.850419521E-1,5.416266662E-1
3.423698138E0,3.922083080E-1,6.572210789E-2,-3.544987142E-1,5.327439260E-1
3.426142253E0,3.989278078E-1,9.809793532E-2,-3.227337301E-1,5.224209618E-1
3.428587149E0,4.013712704E-1,1.213107854E-1,-2.903579175E-1,5.100224737E-1
3.431032826E0,4.019821286E-1,1.384149939E-1,-2.555386126E-1,4.960325844E-1
3.433477670E0,3.983169496E-1,1.494105607E-1,-2.207193226E-1,4.792670731E-1
3.435921784E0,3.952626288E-1,1.536866128E-1,-1.859000325E-1,4.630452924E-1
3.438366680E0,3.934300244E-1,1.506322920E-1,-1.529133320E-1,4.481738040E-1
3.440812357E0,3.885430992E-1,1.408584565E-1,-1.174831837E-1,4.296616612E-1
3.443257253E0,3.854887784E-1,1.231433898E-1,-8.632908762E-2,4.137856982E-1
3.445701316E0,3.787692785E-1,9.993052483E-2,-5.700757727E-2,3.958562113E-1
3.448146211E0,3.689954281E-1,6.755469739E-2,-3.135126084E-2,3.764361362E-1
3.450591941E0,3.531129658E-1,2.784848772E-2,-7.527535781E-3,3.542893855E-1
3.453036784E0,3.341761529E-1,-2.224241756E-2,1.202013530E-2,3.351311833E-1
3.455480899E0,3.121850193E-1,-8.027456701E-2,2.851348184E-2,3.235993062E-1
3.457925795E0,2.877504230E-1,-1.450262219E-1,4.073077813E-2,3.247951773E-1
3.460371472E0,2.639267147E-1,-2.171082646E-1,5.050461367E-2,3.454620460E-1
3.462816368E0,2.394921333E-1,-2.879685760E-1,5.600239709E-2,3.787065501E-1
3.465260430E0,2.168901414E-1,-3.576071560E-1,5.600239709E-2,4.219721317E-1
3.467705326E0,1.948990077E-1,-4.199153781E-1,5.783499032E-2,4.665398526E-1
3.470151003E0,1.753513366E-1,-4.657302201E-1,5.661325902E-2,5.008570557E-1
3.472595899E0,1.588579863E-1,-4.932191372E-1,5.478066579E-2,5.210584405E-1
3.475040013E0,1.460298300E-1,-4.974951744E-1,5.294807255E-2,5.211810225E-1
3.477484909E0,1.374777257E-1,-4.767257869E-1,5.294807255E-2,4.989700386E-1
3.479930586E0,1.332016736E-1,-4.339652658E-1,5.600239709E-2,4.573891190E-1
3.482375482E0,1.332016736E-1,-3.753222525E-1,5.966758355E-2,4.027029918E-1
3.484819545E0,1.393103153E-1,-3.001858890E-1,6.699796021E-2,3.376502015E-1
3.487264441E0,1.460298300E-1,-2.195517272E-1,7.677179575E-2,2.746298978E-1
3.489710118E0,1.521384865E-1,-1.352523863E-1,8.715648949E-2,2.214397903E-1
3.492155013E0,1.576362699E-1,-5.278565735E-2,1.005955189E-1,1.943064015E-1
3.494599128E0,1.582471281E-1,2.601589449E-2,1.152562648E-1,1.974917388E-1
3.497043972E0,1.594688594E-1,9.504359961E-2,1.329713613E-1,2.283527663E-1
3.499489701E0,1.558036655E-1,1.536866128E-1,1.519081593E-1,2.664027890E-1
3.501934545E0,1.490841508E-1,1.976688802E-1,1.690123826E-1,2.997736741E-1
3.504378659E0,1.429755092E-1,2.263795286E-1,1.891709119E-1,3.278342891E-1
3.506823555E0,1.344234049E-1,2.385968119E-1,2.099403143E-1,3.450695959E-1
3.509269232E0,1.246495619E-1,2.355424911E-1,2.319314480E-1,3.532845524E-1
3.511714128E0,1.118214056E-1,2.245469242E-1,2.557551563E-1,3.582402098E-1
3.514158191E0,9.838237613E-2,2.049992532E-1,2.820223272E-1,3.622711398E-1
3.516603086E0,8.066730201E-2,1.860624552E-1,3.101221025E-1,3.705430735E-1
3.519048763E0,6.111963093E-2,1.683473736E-1,3.406653404E-1,3.848757223E-1
3.521493659E0,3.973936290E-2,1.561300755E-1,3.736520410E-1,4.069049829E-1
3.523937774E0,1.958082989E-2,1.518540233E-1,4.078604579E-1,4.356526213E-1
3.526382670E0,-6.075489335E-3,1.622387320E-1,4.408471584E-1,4.697920123E-1
3.528828347E0,-3.051007912E-2,1.830081195E-1,4.744447172E-1,5.094316700E-1
3.531273243E0,-5.433380231E-2,2.129404992E-1,5.062097311E-1,5.518551532E-1
3.533717305E0,-7.265974581E-2,2.471489161E-1,5.367529392E-1,5.953702572E-1
3.536162201E0,-9.098568559E-2,2.886877060E-1,5.672962070E-1,6.429960910E-1
3.538607878E0,-1.025921181E-1,3.253395855E-1,5.953959823E-1,6.861977589E-1
3.541052774E0,-1.123659536E-1,3.564936817E-1,6.210522652E-1,7.248584473E-1
3.543496888E0,-1.209180579E-1,3.784848154E-1,6.460977197E-1,7.584946905E-1
3.545941784E0,-1.264158338E-1,3.888695240E-1,6.693105698E-1,7.843322692E-1
3.548387461E0,-1.343570799E-1,3.876477778E-1,6.937451959E-1,8.059807822E-1
3.550832357E0,-1.484069675E-1,3.815391362E-1,7.157363296E-1,8.245454711E-1
3.553276420E0,-1.765067428E-1,3.778739572E-1,7.383382916E-1,8.479898529E-1
3.555721316E0,-2.149912119E-1,3.766522408E-1,7.609403133E-1,8.758528941E-1
3.558166993E0,-2.595843673E-1,3.790956736E-1,7.829314470E-1,9.077880943E-1
3.560611888E0,-3.078426719E-1,3.852043450E-1,8.000356555E-1,9.397906938E-1
3.563056003E0,-3.554901183E-1,3.870369196E-1,8.177507520E-1,9.720530303E-1
3.565500847E0,-3.982506394E-1,3.888695240E-1,8.324114680E-1,1.001365034E0
3.567946576E0,-4.349025190E-1,3.900912404E-1,8.440179229E-1,1.026488008E0
3.570391420E0,-4.623914361E-1,3.839825988E-1,8.531808853E-1,1.043631209E0
3.572835534E0,-4.782739282E-1,3.662675321E-1,8.605112433E-1,1.050417753E0
3.575280430E0,-4.886586368E-1,3.424437940E-1,8.684524894E-1,1.053691009E0
3.577726107E0,-4.935455322E-1,3.131223023E-1,8.770046234E-1,1.053930680E0
3.580171003E0,-4.996541739E-1,2.734161019E-1,8.855566978E-1,1.052910881E0
3.582615066E0,-5.130932331E-1,2.367642075E-1,8.977739811E-1,1.060811047E0
3.585059961E0,-5.363060832E-1,2.043883950E-1,9.124347568E-1,1.077931360E0
3.587505638E0,-5.650167465E-1,1.677365154E-1,9.264846444E-1,1.098067966E0
3.589950534E0,-5.900621414E-1,1.200890541E-1,9.429779649E-1,1.118839646E0
3.592394649E0,-6.144967675E-1,6.266777217E-2,9.582496285E-1,1.140077137E0
3.594839545E0,-6.340444088E-1,1.581305172E-3,9.735212326E-1,1.161791032E0
3.597285222E0,-6.499269009E-1,-6.072689965E-2,9.869602323E-1,1.183293384E0
3.599730118E0,-6.609224677E-1,-1.254785508E-1,1.000399232E0,1.205554643E0
3.602174180E0,-6.658093929E-1,-1.938954145E-1,1.008951306E0,1.224287678E0
3.604619076E0,-6.664202809E-1,-2.653665841E-1,1.013838172E0,1.241935286E0
3.607064753E0,-6.627550721E-1,-3.392812312E-1,1.015670776E0,1.259342354E0
3.609509649E0,-6.645876765E-1,-4.107523859E-1,1.015059948E0,1.280914127E0
3.611953763E0,-6.713072062E-1,-4.724497497E-1,1.013227344E0,1.304029057E0
3.614398659E0,-6.890222430E-1,-5.188754201E-1,1.007118702E0,1.325998278E0
3.616844336E0,-7.177329063E-1,-5.457534790E-1,9.979557991E-1,1.344954706E0
3.619289232E0,-7.531630397E-1,-5.494186878E-1,9.851276875E-1,1.356315605E0
3.621733295E0,-7.892040610E-1,-5.292600989E-1,9.686343074E-1,1.356912570E0
3.624178191E0,-8.203581572E-1,-4.901648164E-1,9.490866661E-1,1.346853575E0
3.626623868E0,-8.380732536E-1,-4.345761240E-1,9.270955324E-1,1.323151281E0
3.629068763E0,-8.392949700E-1,-3.728787899E-1,9.038826227E-1,1.288587767E0
3.631512878E0,-8.240233660E-1,-3.099597096E-1,8.782263398E-1,1.243531678E0
3.633957722E0,-7.953127027E-1,-2.470406443E-1,8.544026017E-1,1.193128317E0
3.636403451E0,-7.568282485E-1,-1.896193475E-1,8.354657888E-1,1.143130605E0
3.638848295E0,-7.165111899E-1,-1.438044906E-1,8.201941848E-1,1.098538355E0
3.641292409E0,-6.786375642E-1,-1.089852005E-1,8.122529387E-1,1.064040203E0
3.643737305E0,-6.462617517E-1,-8.577235043E-2,8.079769015E-1,1.038189685E0
3.646182982E0,-6.199945211E-1,-8.027456701E-2,8.061442971E-1,1.020149911E0
3.648627878E0,-6.047229171E-1,-9.676791728E-2,8.049225807E-1,1.011411982E0
3.651071941E0,-5.943382382E-1,-1.395284384E-1,8.030899763E-1,1.008791176E0
3.653516836E0,-5.900621414E-1,-2.091670185E-1,7.963704467E-1,1.012980780E0
3.655962513E0,-5.833426714E-1,-3.154574931E-1,7.841531634E-1,1.026985047E0
3.658407409E0,-5.699036121E-1,-4.541237950E-1,7.652163506E-1,1.056680941E0
3.660851524E0,-5.570755005E-1,-6.074507833E-1,7.413926125E-1,1.108599374E0
3.663296420E0,-5.442473292E-1,-7.662756443E-1,7.114602923E-1,1.178795685E0
3.665742097E0,-5.369169116E-1,-9.232678413E-1,6.790844202E-1,1.265645656E0
3.668186993E0,-5.314191580E-1,-1.071707964E0,6.430433989E-1,1.358112328E0
3.670631055E0,-5.283648372E-1,-1.202432990E0,6.015046239E-1,1.444583784E0
3.673075951E0,-5.277539492E-1,-1.312999606E0,5.569114685E-1,1.520737512E0
3.675521628E0,-5.295865536E-1,-1.388746738E0,5.025445223E-1,1.568958386E0
3.677966524E0,-5.314191580E-1,-1.429674745E0,4.396254420E-1,1.587339512E0
3.680410638E0,-5.253105164E-1,-1.437005043E0,3.675433993E-1,1.573538300E0
3.682855482E0,-5.124823451E-1,-1.410127044E0,2.844657898E-1,1.527094371E0
3.685301211E0,-4.880477488E-1,-1.346597075E0,1.910035014E-1,1.444990182E0
3.687746107E0,-4.562827945E-1,-1.246415257E0,8.959995210E-2,1.330328205E0
3.690190170E0,-4.190200567E-1,-1.108970761E0,-1.669050753E-2,1.185610615E0
3.692635066E0,-3.799247146E-1,-9.336525798E-1,-1.254244149E-1,1.015766318E0
3.695080743E0,-3.377750516E-1,-7.338998318E-1,-2.335474789E-1,8.409788187E-1
3.697525638E0,-2.919601798E-1,-5.121558905E-1,-3.380053639E-1,6.795528153E-1
3.699969753E0,-2.430909872E-1,-2.794164717E-1,-4.357437193E-1,5.718735714E-1
3.702414597E0,-1.923892200E-1,-4.240095615E-2,-5.261516571E-1,5.618247230E-1
3.704860326E0,-1.404657215E-1,1.878950447E-1,-6.098401546E-1,6.534065970E-1
3.707305170E0,-8.365530521E-2,4.004759490E-1,-6.825330257E-1,7.957578319E-1
3.709749284E0,-2.745575458E-2,5.922874808E-1,-7.466738224E-1,9.534569080E-1
3.712194180E0,2.507860959E-2,7.590535879E-1,-8.016516566E-1,1.104281062E0
3.714639857E0,7.089346647E-2,8.977198601E-1,-8.480773568E-1,1.236997184E0
3.717084753E0,1.081562117E-1,1.012562394E0,-8.853400946E-1,1.349372984E0
3.719528816E0,1.368668675E-1,1.101137877E0,-9.146616459E-1,1.437999683E0
3.721973711E0,1.588579863E-1,1.170165539E0,-9.348201752E-1,1.506124831E0
3.724419388E0,1.784056574E-1,1.214758635E0,-9.476483464E-1,1.550968893E0
3.726864284E0,1.961207390E-1,1.247134447E0,-9.574221373E-1,1.584444642E0
3.729308399E0,2.120032161E-1,1.267292976E0,-9.635307789E-1,1.606041224E0
3.731753295E0,2.291074395E-1,1.275845170E0,-9.647525549E-1,1.615864663E0
3.734198972E0,2.462116480E-1,1.274623394E0,-9.641416669E-1,1.617051059E0
3.736643868E0,2.663701773E-1,1.266071320E0,-9.641416669E-1,1.613523725E0
3.739087930E0,2.853069901E-1,1.246523619E0,-9.641416669E-1,1.601496289E0
3.741532826E0,3.011894524E-1,1.220867276E0,-9.623090625E-1,1.583436366E0
3.743978503E0,3.152393401E-1,1.188491464E0,-9.635307789E-1,1.562139354E0
3.746423399E0,3.231805861E-1,1.150617838E0,-9.665850997E-1,1.537092663E0
3.748867513E0,3.268457651E-1,1.103581309E0,-9.696394205E-1,1.504965271E0
3.751312409E0,3.244023323E-1,1.052268624E0,-9.739155173E-1,1.470039988E0
3.753758086E0,3.176828027E-1,9.930148125E-1,-9.806349874E-1,1.431309107E0
3.756202982E0,3.109633029E-1,9.264305234E-1,-9.885762334E-1,1.390055632E0
3.758647045E0,3.030220568E-1,8.512941599E-1,-9.983500838E-1,1.346561177E0
3.761091941E0,2.969134152E-1,7.706599832E-1,-1.006291509E0,1.301805280E0
3.763537618E0,2.908047438E-1,6.845280528E-1,-1.018508792E0,1.261152732E0
3.765982513E0,2.804200649E-1,5.947309732E-1,-1.027060866E0,1.219505788E0
3.768426628E0,2.694244981E-1,5.061555505E-1,-1.036223769E0,1.184289957E0
3.770871472E0,2.572071850E-1,4.157475829E-1,-1.046608567E0,1.155158466E0
3.773317149E0,2.413247377E-1,3.241178691E-1,-1.055160642E0,1.129891146E0
3.775762045E0,2.229987830E-1,2.337098867E-1,-1.063712716E0,1.111680490E0
3.778206159E0,2.040619850E-1,1.365824044E-1,-1.071653962E0,1.099426333E0
3.780651055E0,1.894012243E-1,3.273540735E-2,-1.079595208E0,1.096572042E0
3.783096732E0,1.777947992E-1,-7.233332098E-2,-1.083871245E0,1.100736107E0
3.785541628E0,1.686318219E-1,-1.749586016E-1,-1.086314678E0,1.113160718E0
3.787985691E0,1.570253968E-1,-2.733078301E-1,-1.083260417E0,1.128187607E0
3.790430586E0,1.466407031E-1,-3.618832231E-1,-1.075319171E0,1.144016732E0
3.792876263E0,1.325908154E-1,-4.333544075E-1,-1.061880112E0,1.154541354E0
3.795321159E0,1.203735098E-1,-4.901648164E-1,-1.043554187E0,1.159205189E0
3.797765274E0,1.099888086E-1,-5.304818153E-1,-1.022173882E0,1.156869888E0
3.800210170E0,1.057127565E-1,-5.579707623E-1,-9.971284270E-1,1.147506714E0
3.802655847E0,1.087670773E-1,-5.762966871E-1,-9.714720249E-1,1.134771362E0
3.805100743E0,1.173191816E-1,-5.879031420E-1,-9.464265704E-1,1.120320110E0
3.807544805E0,1.313690841E-1,-5.872922540E-1,-9.219920039E-1,1.101017385E0
3.809989701E0,1.484732926E-1,-5.787401795E-1,-8.957248330E-1,1.076711424E0
3.812435378E0,1.661883742E-1,-5.646902919E-1,-8.706793785E-1,1.050988240E0
3.814880274E0,1.857360452E-1,-5.512512326E-1,-8.480773568E-1,1.028402160E0
3.817324388E0,2.040619850E-1,-5.365905166E-1,-8.297514319E-1,1.008988660E0
3.819769284E0,2.187227309E-1,-5.255949497E-1,-8.138689399E-1,9.932131370E-1
3.822214961E0,2.303291708E-1,-5.188754201E-1,-8.034842610E-1,9.838039369E-1
3.824659857E0,2.382704020E-1,-5.152102113E-1,-7.949321270E-1,9.767965155E-1
3.827103920E0,2.431573272E-1,-5.176537037E-1,-7.888234854E-1,9.743373819E-1
3.829548816E0,2.468225062E-1,-5.268166661E-1,-7.869908810E-1,9.786785969E-1
3.831994493E0,2.529311478E-1,-5.457534790E-1,-7.863800526E-1,9.900578834E-1
3.834439388E0,2.578180730E-1,-5.646902919E-1,-7.857691646E-1,1.001388269E0
3.836883451E0,2.645375729E-1,-5.842379332E-1,-7.845474482E-1,1.013325608E0
3.839328347E0,2.718679607E-1,-6.025639176E-1,-7.821039557E-1,1.024051786E0
3.841774076E0,2.840852439E-1,-6.172246337E-1,-7.796605229E-1,1.034186253E0
3.844218920E0,2.981351316E-1,-6.227224469E-1,-7.753844857E-1,1.038214286E0
3.846663034E0,3.109633029E-1,-6.166138053E-1,-7.711083889E-1,1.035141975E0
3.849107930E0,3.268457651E-1,-5.970661044E-1,-7.643889189E-1,1.023526505E0
3.851553607E0,3.415065408E-1,-5.585816503E-1,-7.601128221E-1,1.003200718E0
3.853998503E0,3.549455404E-1,-5.005494952E-1,-7.533933520E-1,9.716674723E-1
3.856442566E0,3.671628535E-1,-4.290783405E-1,-7.485064268E-1,9.376452710E-1
3.858887461E0,3.867105246E-1,-3.484441936E-1,-7.417868972E-1,9.062042743E-1
3.861333138E0,4.111451209E-1,-2.647557259E-1,-7.320130467E-1,8.803289189E-1
3.863778034E0,4.416883588E-1,-1.786237955E-1,-7.210174799E-1,8.642113589E-1
3.866222149E0,4.746750295E-1,-9.676791728E-2,-7.106328011E-1,8.600461566E-1
3.868667045E0,5.082725883E-1,-2.224241756E-2,-6.965829134E-1,8.625911571E-1
3.871112722E0,5.388158560E-1,3.823319077E-2,-6.831439137E-1,8.709017800E-1
3.873557618E0,5.675264597E-1,8.465890586E-2,-6.678722501E-1,8.805150511E-1
3.876001680E0,5.889067650E-1,1.164238751E-1,-6.550441384E-1,8.885091557E-1
3.878446576E0,6.011240482E-1,1.384149939E-1,-6.391616464E-1,8.882772327E-1
3.880892253E0,6.078435183E-1,1.487997025E-1,-6.257225871E-1,8.849541515E-1
3.883337149E0,6.054000854E-1,1.457453817E-1,-6.110618711E-1,8.724377284E-1
3.885781263E0,6.005131602E-1,1.310846210E-1,-5.970119834E-1,8.568678672E-1
3.888226107E0,5.907393098E-1,1.048174351E-1,-5.847947001E-1,8.378212627E-1
3.890671836E0,5.754677057E-1,6.999816000E-2,-5.737991333E-1,8.156643109E-1
3.893116680E0,5.559200644E-1,2.540502883E-2,-5.597492456E-1,7.893109346E-1
3.895560795E0,5.351506472E-1,-2.774020098E-2,-5.487536788E-1,7.669982620E-1
3.898005691E0,5.143812299E-1,-8.455061913E-2,-5.359255075E-1,7.476315981E-1
3.900451368E0,4.960553050E-1,-1.438044906E-1,-5.224864483E-1,7.346718218E-1
3.902896263E0,4.783402383E-1,-1.993931830E-1,-5.066040158E-1,7.247169474E-1
3.905340378E0,4.612360001E-1,-2.464297712E-1,-4.876672029E-1,7.150423629E-1
3.907785222E0,4.441317916E-1,-2.861360013E-1,-4.681195319E-1,7.058772951E-1
3.910230899E0,4.294710457E-1,-3.124031723E-1,-4.485718608E-1,6.951674873E-1
3.912675795E0,4.166429043E-1,-3.172900975E-1,-4.235264063E-1,6.735272322E-1
3.915119909E0,4.062581956E-1,-3.014076054E-1,-3.960375190E-1,6.424468714E-1
3.917564805E0,3.989278078E-1,-2.617014050E-1,-3.685486019E-1,6.028756863E-1
3.920010482E0,3.946517706E-1,-2.030583769E-1,-3.392270803E-1,5.586212818E-1
3.922455378E0,3.940408826E-1,-1.285328716E-1,-3.074621260E-1,5.160638286E-1
3.924899441E0,3.970952332E-1,-4.545528069E-2,-2.775297463E-1,4.865938418E-1
3.927344336E0,3.989278078E-1,4.128751159E-2,-2.482082397E-1,4.716517621E-1
3.929790013E0,4.001495540E-1,1.249759793E-1,-2.170541286E-1,4.720711342E-1
3.932234909E0,3.983169496E-1,2.007232010E-1,-1.889543533E-1,4.844067954E-1
3.934679024E0,3.903757036E-1,2.654748559E-1,-1.639088988E-1,4.997361466E-1
3.937123920E0,3.787692785E-1,3.137331605E-1,-1.388634443E-1,5.110554946E-1
3.939569597E0,3.628867865E-1,3.467198610E-1,-1.162614524E-1,5.151875456E-1
3.942014493E0,3.421173990E-1,3.638240695E-1,-9.610292315E-2,5.085745177E-1
3.944458555E0,3.164610863E-1,3.681001365E-1,-7.411178946E-2,4.910579263E-1
3.946903451E0,2.889721692E-1,3.613806069E-1,-5.456411839E-2,4.659164095E-1
3.949349128E0,2.584289312E-1,3.479415774E-1,-3.318385407E-2,4.346838184E-1
3.951794024E0,2.291074395E-1,3.296156526E-1,-9.970994666E-3,4.015421746E-1
3.954238138E0,1.979533285E-1,3.094570935E-1,1.568532176E-2,3.676890565E-1
3.956682982E0,1.698535532E-1,2.923528850E-1,4.317423701E-2,3.408584070E-1
3.959128711E0,1.429755092E-1,2.807464600E-1,7.616092265E-2,3.241312344E-1
3.961573555E0,1.173191816E-1,2.770812809E-1,1.109802127E-1,3.207092674E-1
3.964017670E0,9.532805532E-2,2.813573182E-1,1.494647115E-1,3.325493627E-1
3.966462566E0,7.455865294E-2,2.990724146E-1,1.891709119E-1,3.616475298E-1
3.968908243E0,5.317838863E-2,3.265613317E-1,2.325423062E-1,4.044084180E-1
3.971353138E0,3.057639301E-2,3.656566739E-1,2.753028274E-1,4.587279866E-1
3.973797253E0,1.347218174E-2,4.126932323E-1,3.198959529E-1,5.223319102E-1
3.976242097E0,-4.242895171E-3,4.682819545E-1,3.669325411E-1,5.949331734E-1
3.978687826E0,-2.195797116E-2,5.281466842E-1,4.121365249E-1,6.702817226E-1
3.981132670E0,-3.600785881E-2,5.843462348E-1,4.573405087E-1,7.429114543E-1
3.983576784E0,-5.250120908E-2,6.344371438E-1,5.025445223E-1,8.110597162E-1
3.986021680E0,-6.838369370E-2,6.796411872E-1,5.440833569E-1,8.732784047E-1
3.988467357E0,-8.670963347E-2,7.101843953E-1,5.850112438E-1,9.241853663E-1
3.990912253E0,-1.062573045E-1,7.303429246E-1,6.241065860E-1,9.665404456E-1
3.993356316E0,-1.319136173E-1,7.370624542E-1,6.613693833E-1,9.990353973E-1
3.995801211E0,-1.606242508E-1,7.309538126E-1,6.967995167E-1,1.022557183E0
3.998246888E0,-1.930000931E-1,7.144604325E-1,7.310079336E-1,1.040228506E0
4.000691784E0,-2.253759205E-1,6.845280528E-1,7.621620297E-1,1.048934660E0
4.003135899E0,-2.546974421E-1,6.393240690E-1,7.914835215E-1,1.048833741E0
