"Time (s)","Gyroscope x (rad/s)","Gyroscope y (rad/s)","Gyroscope z (rad/s)","Absolute (rad/s)"
1.443733020E-1,-1.010947943E0,-1.783365369E0,-1.669050753E-2,2.050045452E0
1.468175210E-1,-9.993414879E-1,-1.738772273E0,-1.424704865E-2,2.005546161E0
1.492625210E-1,-9.852916598E-1,-1.698455215E0,-1.241445355E-2,1.963594635E0
1.517083540E-1,-9.767395258E-1,-1.665468454E0,-1.180358976E-2,1.930788595E0
1.541533540E-1,-9.681874514E-1,-1.635536194E0,-1.302531920E-2,1.900667052E0
1.565975730E-1,-9.578027129E-1,-1.611101508E0,-1.546877809E-2,1.874372799E0
1.590425730E-1,-9.510832429E-1,-1.589721322E0,-1.669050753E-2,1.852579766E0
1.614883540E-1,-9.455854297E-1,-1.575060487E0,-1.913396642E-2,1.837202616E0
1.639333540E-1,-9.406985044E-1,-1.563454151E0,-2.279915474E-2,1.824780086E0
1.663775730E-1,-9.358115792E-1,-1.555512905E0,-2.402088419E-2,1.815472587E0
1.688225730E-1,-9.321464300E-1,-1.550625920E0,-2.829693630E-2,1.809458048E0
1.712683540E-1,-9.278703332E-1,-1.546349883E0,-3.074039519E-2,1.803631417E0
1.737134060E-1,-9.248160124E-1,-1.540852070E0,-3.196212277E-2,1.797367891E0
1.761575730E-1,-9.217616916E-1,-1.537186861E0,-3.257298842E-2,1.792665351E0
1.786025730E-1,-9.187073708E-1,-1.532910824E0,-3.196212277E-2,1.787417244E0
1.810484060E-1,-9.162639380E-1,-1.528023958E0,-3.196212277E-2,1.781970370E0
1.834934060E-1,-9.119879007E-1,-1.520693541E0,-3.196212277E-2,1.773485932E0
1.859376250E-1,-9.089335799E-1,-1.513363242E0,-2.890780196E-2,1.765577587E0
1.883826250E-1,-9.046574831E-1,-1.504200220E0,-2.585347742E-2,1.755474826E0
1.908284060E-1,-9.003814459E-1,-1.493204713E0,-2.279915474E-2,1.743808150E0
1.932734060E-1,-8.954945207E-1,-1.485874295E0,-1.730137132E-2,1.734944436E0
1.957176250E-1,-8.893858790E-1,-1.477933049E0,-1.180358976E-2,1.724944250E0
1.981626250E-1,-8.802229166E-1,-1.469991803E0,-8.749265224E-3,1.713401539E0
2.006084060E-1,-8.722816706E-1,-1.462661386E0,-2.640618011E-3,1.703015154E0
2.030534580E-1,-8.643404245E-1,-1.460828781E0,2.246299293E-3,1.697383322E0
2.054976250E-1,-8.521231413E-1,-1.455941916E0,1.324186474E-2,1.687025802E0
2.079426250E-1,-8.533448577E-1,-1.457774520E0,2.179397084E-2,1.689313166E0
2.103884580E-1,-8.392949700E-1,-1.451665878E0,3.156780452E-2,1.677124442E0
2.128334580E-1,-8.417384624E-1,-1.457774520E0,4.073077813E-2,1.683831698E0
2.152776770E-1,-8.319646120E-1,-1.453498483E0,5.111547932E-2,1.675540434E0
2.177226770E-1,-8.319646120E-1,-1.460828781E0,6.394363940E-2,1.682342008E0
2.201684580E-1,-8.282994032E-1,-1.461439729E0,7.677179575E-2,1.681600396E0
2.226134580E-1,-8.221907616E-1,-1.467548370E0,8.959995210E-2,1.684554546E0
2.250576770E-1,-8.252450824E-1,-1.473657012E0,1.005955189E-1,1.691985193E0
2.275026770E-1,-8.142495155E-1,-1.479154825E0,1.140345335E-1,1.692307639E0
2.299484580E-1,-8.234124780E-1,-1.489539504E0,1.219757795E-1,1.706345256E0
2.323935110E-1,-8.105843067E-1,-1.490761161E0,1.348039508E-1,1.702230261E0
2.348376770E-1,-8.185255527E-1,-1.502367616E0,1.439669281E-1,1.716921375E0
2.372826770E-1,-8.075299859E-1,-1.502367616E0,1.525190324E-1,1.712447134E0
2.397285110E-1,-8.099734783E-1,-1.508476257E0,1.592385471E-1,1.719568135E0
2.421735110E-1,-8.081408739E-1,-1.510919690E0,1.659580469E-1,1.721485421E0
2.446177290E-1,-8.026431203E-1,-1.514584899E0,1.684015095E-1,1.722371175E0
2.470627290E-1,-8.063082695E-1,-1.517028332E0,1.714558303E-1,1.726529782E0
2.495085110E-1,-7.965344191E-1,-1.515195727E0,1.745101660E-1,1.720679799E0
2.519535110E-1,-8.032539487E-1,-1.515806675E0,1.726775616E-1,1.724153219E0
2.543977290E-1,-7.885932326E-1,-1.506032825E0,1.726775616E-1,1.708751502E0
2.568427290E-1,-7.959235907E-1,-1.502367616E0,1.720667034E-1,1.708862126E0
2.592885110E-1,-7.861497402E-1,-1.485263467E0,1.684015095E-1,1.688904393E0
2.617335630E-1,-7.873714566E-1,-1.474878669E0,1.659580469E-1,1.680108024E0
2.641777290E-1,-7.794302106E-1,-1.457163692E0,1.616819948E-1,1.660415172E0
2.666227290E-1,-7.720998526E-1,-1.444335461E0,1.574059427E-1,1.645302324E0
2.690685630E-1,-7.751541734E-1,-1.427842140E0,1.494647115E-1,1.631544321E0
2.715135630E-1,-7.562173605E-1,-1.409516215E0,1.451886594E-1,1.606138352E0
2.739577810E-1,-7.586608529E-1,-1.397298932E0,1.354148239E-1,1.595727975E0
2.764027810E-1,-7.378914356E-1,-1.372864246E0,1.262518317E-1,1.563706985E0
2.788485630E-1,-7.372805476E-1,-1.356370926E0,1.176997274E-1,1.548282248E0
2.812935630E-1,-7.226198316E-1,-1.323384285E0,1.122019440E-1,1.511990299E0
2.837377810E-1,-7.171220183E-1,-1.298949718E0,1.054824293E-1,1.487501564E0
2.861827810E-1,-7.042938471E-1,-1.264130354E0,9.693032503E-2,1.450327847E0
2.886286150E-1,-6.908548474E-1,-1.233587146E0,9.082168341E-2,1.416780239E0
2.910736150E-1,-6.829136014E-1,-1.201211333E0,8.349131048E-2,1.384286984E0
2.935177810E-1,-6.597007513E-1,-1.163948536E0,7.799352705E-2,1.340173222E0
2.959627810E-1,-6.535921097E-1,-1.134627104E0,7.066313922E-2,1.311317883E0
2.984086150E-1,-6.218271255E-1,-1.095531702E0,6.516536325E-2,1.261390189E0
3.008536150E-1,-6.120532751E-1,-1.065599322E0,5.966758355E-2,1.230313516E0
3.032978330E-1,-5.845643878E-1,-1.021006227E0,5.600239709E-2,1.177839338E0
3.057428330E-1,-5.674601793E-1,-9.892412424E-1,5.050461367E-2,1.141560339E0
3.081886150E-1,-5.448581576E-1,-9.483132958E-1,4.745028913E-2,1.094723732E0
3.106336150E-1,-5.222561955E-1,-9.104397297E-1,4.378510267E-2,1.050509005E0
3.130778330E-1,-5.075954199E-1,-8.707334995E-1,3.889818490E-2,1.008634228E0
3.155228330E-1,-4.776630700E-1,-8.316381574E-1,3.584385663E-2,9.597233014E-1
3.179686670E-1,-4.709435403E-1,-7.968188524E-1,3.278953582E-2,9.261658898E-1
3.204136670E-1,-4.404003024E-1,-7.552800775E-1,2.912434749E-2,8.747849161E-1
3.228578330E-1,-4.361242652E-1,-7.290129066E-1,2.362656407E-2,8.498366944E-1
3.253028860E-1,-4.098570645E-1,-6.941936016E-1,1.751791686E-2,8.063463569E-1
3.277486670E-1,-4.006941020E-1,-6.777002811E-1,1.079840586E-2,7.873690622E-1
3.301936670E-1,-3.835898936E-1,-6.563199759E-1,4.078893457E-3,7.602063894E-1
3.326378860E-1,-3.664856851E-1,-6.465461254E-1,-3.251483664E-3,7.431986422E-1
3.350828860E-1,-3.609879017E-1,-6.367723346E-1,-1.485791244E-2,7.321284237E-1
3.375286670E-1,-3.402184844E-1,-6.324962378E-1,-2.341002040E-2,7.185736823E-1
3.399736670E-1,-3.389967680E-1,-6.361614466E-1,-3.562731296E-2,7.217267490E-1
3.424178860E-1,-3.170056343E-1,-6.361614466E-1,-4.479028285E-2,7.121798423E-1
3.448628860E-1,-3.176164925E-1,-6.489896178E-1,-5.639671162E-2,7.247401944E-1
3.473087190E-1,-2.992905676E-1,-6.532656550E-1,-6.617055833E-2,7.216019697E-1
3.497537190E-1,-2.986797094E-1,-6.728133559E-1,-7.899871469E-2,7.403567908E-1
3.521978860E-1,-2.870732546E-1,-6.807546020E-1,-8.999428153E-2,7.442693412E-1
3.546429380E-1,-2.791320384E-1,-6.954153180E-1,-1.016007066E-1,7.562009408E-1
3.570887190E-1,-2.797428966E-1,-7.058000565E-1,-1.107636839E-1,7.672538052E-1
3.595337190E-1,-2.669147253E-1,-7.149630189E-1,-1.205375046E-1,7.726220803E-1
3.619779380E-1,-2.754668295E-1,-7.271803021E-1,-1.315330714E-1,7.886533553E-1
3.644229380E-1,-2.595843673E-1,-7.290129066E-1,-1.394743025E-1,7.863186013E-1
3.668687190E-1,-2.705799341E-1,-7.424519062E-1,-1.474155486E-1,8.038530200E-1
3.693137190E-1,-2.571409047E-1,-7.430627942E-1,-1.541350633E-1,8.012623657E-1
3.717579380E-1,-2.608060837E-1,-7.546691895E-1,-1.608545780E-1,8.145057361E-1
3.742029380E-1,-2.534756958E-1,-7.577235103E-1,-1.675740778E-1,8.163797633E-1
3.766487710E-1,-2.443127185E-1,-7.656647563E-1,-1.736827344E-1,8.222511269E-1
3.790937710E-1,-2.406475395E-1,-7.705516815E-1,-1.797913760E-1,8.270345041E-1
3.815379900E-1,-2.247650474E-1,-7.723842859E-1,-1.822348386E-1,8.248068550E-1
3.839829900E-1,-2.278193682E-1,-7.791038156E-1,-1.877326220E-1,8.331554221E-1
3.864287710E-1,-2.094934285E-1,-7.748277187E-1,-1.901760846E-1,8.248711617E-1
3.888737710E-1,-2.119368911E-1,-7.791038156E-1,-1.944521368E-1,8.305008337E-1
3.913179900E-1,-1.960544139E-1,-7.699408531E-1,-1.975064576E-1,8.186910597E-1
3.937629900E-1,-1.972761452E-1,-7.699408531E-1,-2.005607784E-1,8.197264303E-1
3.962087710E-1,-1.850588471E-1,-7.595561147E-1,-2.042259723E-1,8.080102202E-1
3.986538230E-1,-1.783393323E-1,-7.558909655E-1,-2.072802931E-1,8.038290795E-1
4.010979900E-1,-1.746741384E-1,-7.497822642E-1,-2.109454721E-1,7.982371143E-1
4.035429900E-1,-1.587916613E-1,-7.430627942E-1,-2.133889347E-1,7.892350381E-1
4.059888230E-1,-1.587916613E-1,-7.424519062E-1,-2.182758600E-1,7.899961872E-1
4.084338230E-1,-1.355787963E-1,-7.326780558E-1,-2.213301808E-1,7.772938906E-1
4.108780420E-1,-1.368005276E-1,-7.345106602E-1,-2.286605537E-1,7.813487973E-1
4.133230420E-1,-1.160311401E-1,-7.210716605E-1,-2.323257476E-1,7.664090410E-1
4.157688230E-1,-1.087007597E-1,-7.216824889E-1,-2.372126579E-1,7.674055740E-1
4.182138230E-1,-9.465087205E-2,-7.076326013E-1,-2.427104414E-1,7.540630241E-1
4.206580420E-1,-8.365530521E-2,-7.003022432E-1,-2.475973815E-1,7.474797023E-1
4.231030420E-1,-7.571406662E-2,-6.844197512E-1,-2.567603588E-1,7.349074075E-1
4.255488230E-1,-5.677726120E-2,-6.679264307E-1,-2.634798586E-1,7.202575998E-1
4.279938230E-1,-5.616639555E-2,-6.550982594E-1,-2.714211047E-1,7.113211719E-1
4.304380420E-1,-3.051007912E-2,-6.324962378E-1,-2.775297463E-1,6.913791404E-1
4.328830420E-1,-2.745575458E-2,-6.227224469E-1,-2.873035967E-1,6.863529858E-1
4.353288750E-1,3.315787762E-5,-5.976769924E-1,-2.952448130E-1,6.666237979E-1
4.377738750E-1,9.196128696E-3,-5.872922540E-1,-3.050186634E-1,6.618407251E-1
4.402180940E-1,3.179812431E-2,-5.604141951E-1,-3.141816258E-1,6.432614435E-1
4.426630940E-1,5.256752297E-2,-5.372013450E-1,-3.233446181E-1,6.292061439E-1
4.451088750E-1,6.967173517E-2,-5.127667785E-1,-3.331184387E-1,6.154281550E-1
4.475538750E-1,1.008258387E-1,-4.810018539E-1,-3.404488266E-1,5.978578734E-1
4.499980940E-1,1.179300472E-1,-4.474042952E-1,-3.496117890E-1,5.799193930E-1
4.524430940E-1,1.564145386E-1,-3.985351026E-1,-3.569421768E-1,5.574077982E-1
4.548888750E-1,1.747404784E-1,-3.527202606E-1,-3.642725348E-1,5.363210761E-1
4.573339270E-1,2.156684101E-1,-2.849142551E-1,-3.648833930E-1,5.107140946E-1
4.597780940E-1,2.407138646E-1,-2.189408541E-1,-3.648833930E-1,4.888948279E-1
4.622230940E-1,2.798092067E-1,-1.303654760E-1,-3.587747514E-1,4.732944874E-1
4.646689270E-1,3.182936609E-1,-4.117922857E-2,-3.465574682E-1,4.723437966E-1
4.671139270E-1,3.512803614E-1,6.388950348E-2,-3.300641179E-1,4.862325399E-1
4.695581460E-1,3.970952332E-1,1.738451570E-1,-3.037969172E-1,5.293385776E-1
4.720031460E-1,4.270275831E-1,2.831899226E-1,-2.763080299E-1,5.821470745E-1
4.744489270E-1,4.801728129E-1,3.980324864E-1,-2.439321727E-1,6.697004520E-1
4.768939270E-1,5.064399838E-1,5.000469089E-1,-2.078911513E-1,7.414493233E-1
4.793381460E-1,5.565308928E-1,6.008396149E-1,-1.663523614E-1,8.357080744E-1
4.817831460E-1,5.827981234E-1,6.808629036E-1,-1.229809672E-1,9.046282465E-1
4.842289790E-1,6.151739359E-1,7.572209835E-1,-7.594439387E-2,9.785653480E-1
4.866739790E-1,6.371650696E-1,8.103662133E-1,-3.012952954E-2,1.031300400E0
4.891181460E-1,6.493823528E-1,8.543484807E-1,1.568532176E-2,1.073244984E0
4.915631980E-1,6.622105241E-1,8.861134052E-1,6.333277375E-2,1.108030137E0
4.940089790E-1,6.512149572E-1,9.001633525E-1,1.091476232E-1,1.116372781E0
4.964539790E-1,6.561018825E-1,9.074937105E-1,1.543516219E-1,1.130415383E0
4.988981980E-1,6.310564280E-1,8.897786140E-1,1.940578371E-1,1.107969603E0
5.013431980E-1,6.255586147E-1,8.732852936E-1,2.349857688E-1,1.099622251E0
5.037889790E-1,5.974588394E-1,8.354116678E-1,2.710267603E-1,1.062226541E0
5.062339790E-1,5.797437429E-1,8.018140793E-1,3.040134609E-1,1.035100386E0
5.086781980E-1,5.534765720E-1,7.541666627E-1,3.308915198E-1,9.922665311E-1
5.111231980E-1,5.235441923E-1,7.071300745E-1,3.571586907E-1,9.495755862E-1
5.135690310E-1,5.027748346E-1,6.600934863E-1,3.822041452E-1,9.135567599E-1
5.160140310E-1,4.655120671E-1,6.106134653E-1,4.029735625E-1,8.671435756E-1
5.184582500E-1,4.471861124E-1,5.666311979E-1,4.231320918E-1,8.367120775E-1
5.209032500E-1,4.062581956E-1,5.177620053E-1,4.390145838E-1,7.911112567E-1
5.233490310E-1,3.879322410E-1,4.859969914E-1,4.555079043E-1,7.708254991E-1
5.257940310E-1,3.494477570E-1,4.475125372E-1,4.689469337E-1,7.364050737E-1
5.282382500E-1,3.268457651E-1,4.261322618E-1,4.799425006E-1,7.202511108E-1
5.306832500E-1,2.956916690E-1,4.016976953E-1,4.921598136E-1,7.007252555E-1
5.331290310E-1,2.669810355E-1,3.900912404E-1,5.031554103E-1,6.903733889E-1
5.355740310E-1,2.462116480E-1,3.839825988E-1,5.153726935E-1,6.882382037E-1
5.380182500E-1,2.156684101E-1,3.797065616E-1,5.251465440E-1,6.829852331E-1
5.404632500E-1,2.065054476E-1,3.870369196E-1,5.404181480E-1,6.960559257E-1
5.429090830E-1,1.771839410E-1,3.864260614E-1,5.563006401E-1,7.001354526E-1
5.453540830E-1,1.765730679E-1,4.053628743E-1,5.721831322E-1,7.231117790E-1
5.477983020E-1,1.564145386E-1,4.145258367E-1,5.917307734E-1,7.392174818E-1
5.502433020E-1,1.496950239E-1,4.426256120E-1,6.143327951E-1,7.718360032E-1
5.526890830E-1,1.374777257E-1,4.676710665E-1,6.387673616E-1,8.035173264E-1
5.551340830E-1,1.228169575E-1,5.049338341E-1,6.625910997E-1,8.420624367E-1
5.575783020E-1,1.167083159E-1,5.476943851E-1,6.900799870E-1,8.887071278E-1
5.600233020E-1,9.410632402E-2,5.910657644E-1,7.151254416E-1,9.325337180E-1
5.624690830E-1,9.410632402E-2,6.399349570E-1,7.444469333E-1,9.861916578E-1
5.649140830E-1,7.394778728E-2,6.778085828E-1,7.719358802E-1,1.029940655E0
5.673583020E-1,7.761297375E-2,7.266777158E-1,8.000356555E-1,1.083578020E0
5.698033020E-1,6.234135479E-2,7.639405131E-1,8.250811100E-1,1.126166236E0
5.722491360E-1,6.173049659E-2,8.152531385E-1,8.507373929E-1,1.179916288E0
5.746941360E-1,5.501098186E-2,8.580136299E-1,8.770046234E-1,1.228149301E0
5.771383540E-1,4.951319844E-2,9.074937105E-1,9.026609063E-1,1.280934465E0
5.795833540E-1,5.378925428E-2,9.545302987E-1,9.277063608E-1,1.332163829E0
5.820291360E-1,5.073492974E-2,9.924038649E-1,9.521409869E-1,1.376231057E0
5.844741360E-1,7.272606343E-2,1.026612282E0,9.796298742E-1,1.420878794E0
5.869183540E-1,7.639124990E-2,1.046770811E0,1.005286217E0,1.453328983E0
5.893633540E-1,1.014367044E-1,1.079757571E0,1.032775044E0,1.497594775E0
5.918091360E-1,1.014367044E-1,1.113355160E0,1.058431268E0,1.539521310E0
5.942541880E-1,1.069344804E-1,1.171998143E0,1.081644177E0,1.598426963E0
5.966983540E-1,1.002149731E-1,1.225143313E0,1.102413535E0,1.651161646E0
5.991433540E-1,9.654978663E-2,1.277066827E0,1.117074370E0,1.699434227E0
6.015891880E-1,9.838237613E-2,1.313107848E0,1.128680706E0,1.734315845E0
6.040341880E-1,8.799767494E-2,1.336931586E0,1.131735086E0,1.753839777E0
6.064784060E-1,1.002149731E-1,1.353424907E0,1.129291654E0,1.765531551E0
6.089234060E-1,9.105200320E-2,1.346705437E0,1.118296027E0,1.752852534E0
6.113691880E-1,1.087670773E-1,1.341818571E0,1.101191878E0,1.739232850E0
6.138141880E-1,1.008258387E-1,1.319827437E0,1.077368140E0,1.706702207E0
6.162584060E-1,1.069344804E-1,1.305166602E0,1.049879193E0,1.678434140E0
6.187034060E-1,9.654978663E-2,1.280732036E0,1.016281605E0,1.637810950E0
6.211492400E-1,8.127816767E-2,1.266071320E0,9.759646654E-1,1.600640420E0
6.235942400E-1,6.478481740E-2,1.245912790E0,9.362584949E-1,1.559831953E0
6.260384060E-1,2.752206847E-2,1.225754261E0,8.904436231E-1,1.515295621E0
6.284834580E-1,6.752669811E-3,1.208649993E0,8.458505273E-1,1.475243545E0
6.309292400E-1,-3.600785881E-2,1.168943763E0,7.975921631E-1,1.415584454E0
6.333742400E-1,-4.761429131E-2,1.119463801E0,7.517773509E-1,1.349309271E0
6.358184580E-1,-7.021628320E-2,1.031499267E0,7.059624791E-1,1.251920159E0
6.382634580E-1,-6.960541755E-2,9.374260902E-1,6.644237041E-1,1.151117478E0
6.407092400E-1,-8.121185005E-2,8.250269890E-1,6.302152276E-1,1.041362631E0
6.431542400E-1,-9.342914075E-2,7.187365294E-1,6.008937359E-1,9.414799439E-1
6.455984580E-1,-1.105333567E-1,6.069482565E-1,5.764591694E-1,8.443393767E-1
6.480434580E-1,-1.484069675E-1,4.933274090E-1,5.581332445E-1,7.595454424E-1
6.504892920E-1,-1.740632802E-1,3.742087781E-1,5.446941853E-1,6.833900721E-1
6.529342920E-1,-2.259867787E-1,2.349316329E-1,5.318660140E-1,6.238143579E-1
6.553785110E-1,-2.595843673E-1,9.260015190E-2,5.227030516E-1,5.909122710E-1
6.578235110E-1,-3.194490969E-1,-6.866813451E-2,5.110966563E-1,6.066158837E-1
6.602692920E-1,-3.646530807E-1,-2.195517272E-1,5.031554103E-1,6.590449128E-1
6.627142920E-1,-4.196309149E-1,-3.826526105E-1,4.933815300E-1,7.522888138E-1
6.651585110E-1,-4.697218239E-1,-5.347579122E-1,4.848294258E-1,8.611992735E-1
6.676035110E-1,-5.149258375E-1,-6.783111095E-1,4.756664634E-1,9.754553623E-1
6.700492920E-1,-5.650167465E-1,-8.078144193E-1,4.652817547E-1,1.090089524E0
6.724942920E-1,-5.900621414E-1,-9.147157669E-1,4.555079043E-1,1.179985473E0
6.749385110E-1,-6.291574836E-1,-1.013675928E0,4.439014792E-1,1.272959760E0
6.773835110E-1,-6.352661848E-1,-1.081481814E0,4.341276586E-1,1.327265182E0
6.798293440E-1,-6.590898633E-1,-1.136459708E0,4.219103456E-1,1.379836387E0
6.822743440E-1,-6.633659601E-1,-1.150509596E0,4.121365249E-1,1.390533438E0
6.847185630E-1,-6.774158478E-1,-1.140735745E0,3.999192417E-1,1.385678776E0
6.871635630E-1,-6.871896386E-1,-1.092477441E0,3.864802122E-1,1.347257775E0
6.896093440E-1,-6.884114146E-1,-1.029558301E0,3.742628992E-1,1.293821197E0
6.920543440E-1,-6.920765638E-1,-9.513676167E-1,3.541043699E-1,1.228600919E0
6.944985630E-1,-6.725289226E-1,-8.566836119E-1,3.339458406E-1,1.139175925E0
6.969435630E-1,-6.719180346E-1,-7.619996071E-1,3.113438487E-1,1.062568698E0
6.993893440E-1,-6.346552968E-1,-6.459352970E-1,2.862983942E-1,9.497297111E-1
7.018343960E-1,-6.175510883E-1,-5.390339494E-1,2.575877607E-1,8.592312842E-1
7.042785630E-1,-5.772340298E-1,-4.303000569E-1,2.300988436E-1,7.558457131E-1
7.067235630E-1,-5.332517624E-1,-3.233987391E-1,2.026099414E-1,6.557400208E-1
7.091693960E-1,-4.917129576E-1,-2.256603688E-1,1.720667034E-1,5.677245681E-1
7.116143960E-1,-4.434546232E-1,-1.346415281E-1,1.390800029E-1,4.838631947E-1
7.140586150E-1,-3.951963186E-1,-5.706170946E-2,1.067041606E-1,4.133061176E-1
7.165036150E-1,-3.499923348E-1,1.624205895E-2,7.310660183E-2,3.579148141E-1
7.189493960E-1,-3.072318137E-1,7.855026424E-2,3.828731924E-2,3.194173605E-1
7.213943960E-1,-2.669147253E-1,1.292520314E-1,-8.080243133E-4,2.965640085E-1
7.238386150E-1,-2.278193682E-1,1.628495902E-1,-4.295768961E-2,2.833143425E-1
7.262836150E-1,-1.954435408E-1,1.811755300E-1,-8.999428153E-2,2.812858351E-1
7.287293960E-1,-1.649003029E-1,1.842298508E-1,-1.413069069E-1,2.847813016E-1
7.311744480E-1,-1.416874528E-1,1.744560152E-1,-1.987281889E-1,3.000052143E-1
7.336186150E-1,-1.215289235E-1,1.512431651E-1,-2.579820752E-1,3.227979637E-1
7.360636670E-1,-1.019812524E-1,1.139804125E-1,-3.227337301E-1,3.571397077E-1
7.385094480E-1,-8.670963347E-2,6.999816000E-2,-3.911505938E-1,4.067149984E-1
7.409544480E-1,-6.777282804E-2,1.624205895E-2,-4.620108902E-1,4.672376520E-1
7.433986670E-1,-4.883601889E-2,-4.240095615E-2,-5.334820151E-1,5.373879960E-1
7.458436670E-1,-3.173180670E-2,-1.004330963E-1,-6.049532294E-1,6.140538447E-1
7.482894480E-1,-1.340586599E-2,-1.572435200E-1,-6.745917797E-1,6.928053919E-1
7.507344480E-1,4.920075648E-3,-2.079453021E-1,-7.442303896E-1,7.727511427E-1
7.531786670E-1,2.446774766E-2,-2.610905468E-1,-8.126472235E-1,8.539100972E-1
7.556236670E-1,4.096109420E-2,-3.069053888E-1,-8.773988485E-1,9.304286476E-1
7.580695000E-1,6.173049659E-2,-3.521093726E-1,-9.415396452E-1,1.007118944E0
7.605145000E-1,7.944557071E-2,-3.954807818E-1,-1.006291509E0,1.084130642E0
7.629587190E-1,9.716064483E-2,-4.364087284E-1,-1.068599701E0,1.158360086E0
7.654037190E-1,1.130431294E-1,-4.742823243E-1,-1.132740498E0,1.233216732E0
7.678495000E-1,1.277038902E-1,-5.121558905E-1,-1.193216085E0,1.304751534E0
7.702945000E-1,1.423646510E-1,-5.512512326E-1,-1.254302502E0,1.377468831E0
7.727387190E-1,1.539710760E-1,-5.927900672E-1,-1.314167261E0,1.449876804E0
7.751837190E-1,1.686318219E-1,-6.404374838E-1,-1.372199416E0,1.523656162E0
7.776295000E-1,1.820708513E-1,-6.886957884E-1,-1.426566362E0,1.594535440E0
7.800745520E-1,1.924555451E-1,-7.351215482E-1,-1.478489876E0,1.662340260E0
7.825187190E-1,2.010076642E-1,-7.748277187E-1,-1.527359009E0,1.724409353E0
7.849637190E-1,2.089488953E-1,-8.084253073E-1,-1.572563052E0,1.780495906E0
7.874095520E-1,2.199444622E-1,-8.420228362E-1,-1.611047506E0,1.831079488E0
7.898545520E-1,2.321617603E-1,-8.719552159E-1,-1.642812490E0,1.874309969E0
7.922987710E-1,2.474333644E-1,-8.982223868E-1,-1.669690490E0,1.912038979E0
7.947437710E-1,2.645375729E-1,-9.171591997E-1,-1.692292571E0,1.942939853E0
7.971895520E-1,2.822526395E-1,-9.293765426E-1,-1.710007668E0,1.966604570E0
7.996345520E-1,3.048546314E-1,-9.293765426E-1,-1.725279212E0,1.983246193E0
8.020787710E-1,3.256240487E-1,-9.153266549E-1,-1.738107443E0,1.991198481E0
8.045237710E-1,3.531129658E-1,-9.006658792E-1,-1.743605137E0,1.994002675E0
8.069695520E-1,3.842670619E-1,-8.872268796E-1,-1.748492122E0,1.998013366E0
8.094146040E-1,4.203080833E-1,-8.743987083E-1,-1.750324726E0,2.001216788E0
8.118587710E-1,4.502404630E-1,-8.530184031E-1,-1.751546383E0,1.999567854E0
8.143037710E-1,4.777293503E-1,-8.322490454E-1,-1.755211592E0,2.000407843E0
8.167496040E-1,5.070508718E-1,-8.298055530E-1,-1.760709405E0,2.011411308E0
8.191946040E-1,5.369832516E-1,-8.432446122E-1,-1.769261479E0,2.032166005E0
8.216388230E-1,5.644721389E-1,-8.670682907E-1,-1.780257106E0,2.059065705E0
8.240838230E-1,5.864632726E-1,-8.988332748E-1,-1.791863441E0,2.088687391E0
8.265296040E-1,6.041783690E-1,-9.385395050E-1,-1.807745934E0,2.124578373E0
8.289746040E-1,6.163956523E-1,-9.758022428E-1,-1.822406769E0,2.157150910E0
8.314188230E-1,6.243368983E-1,-1.013675928E0,-1.840121746E0,2.191662266E0
8.338638230E-1,6.292238235E-1,-1.044829965E0,-1.860280275E0,2.224462852E0
8.363096560E-1,6.383867860E-1,-1.073540568E0,-1.881660581E0,2.258467087E0
8.387546560E-1,6.475497484E-1,-1.092477441E0,-1.900597453E0,2.285847395E0
8.411988230E-1,6.585453153E-1,-1.094920874E0,-1.919534206E0,2.305893584E0
8.436438750E-1,6.744278073E-1,-1.086979628E0,-1.932973266E0,2.317922178E0
8.460896560E-1,6.915320158E-1,-1.066821098E0,-1.946412206E0,2.324832093E0
8.485346560E-1,7.129122615E-1,-1.034445286E0,-1.952520847E0,2.321779189E0
8.509788750E-1,7.379577160E-1,-9.965716600E-1,-1.955575228E0,2.315601679E0
8.534238750E-1,7.672792673E-1,-9.544219971E-1,-1.954964399E0,2.306843000E0
8.558696560E-1,7.984333634E-1,-9.079962373E-1,-1.948855758E0,2.293467193E0
8.583146560E-1,8.344743848E-1,-8.615705371E-1,-1.939692736E0,2.280583083E0
8.607588750E-1,8.711262345E-1,-8.163665533E-1,-1.925642848E0,2.265704227E0
8.632038750E-1,9.108324647E-1,-7.760494947E-1,-1.905484319E0,2.250053130E0
8.656497080E-1,9.499278069E-1,-7.332889438E-1,-1.881049752E0,2.231238150E0
8.680947080E-1,9.847470522E-1,-6.801437140E-1,-1.848062992E0,2.201740005E0
8.705389270E-1,1.012235999E0,-6.141703129E-1,-1.807745934E0,2.160965583E0
8.729839270E-1,1.031783700E0,-5.335361958E-1,-1.761320233E0,2.109854839E0
8.754297080E-1,1.045222640E0,-4.382413030E-1,-1.711229324E0,2.052523229E0
8.778747080E-1,1.062326908E0,-3.435572684E-1,-1.661749244E0,2.001994157E0
8.803189270E-1,1.086761475E0,-2.659774423E-1,-1.605549693E0,1.956932375E0
8.827639270E-1,1.116083026E0,-1.975605935E-1,-1.547517538E0,1.918197602E0
8.852097080E-1,1.146015406E0,-1.346415281E-1,-1.485820293E0,1.881260640E0
8.876547080E-1,1.169228196E0,-7.294419408E-2,-1.421068549E0,1.841697926E0
8.900989270E-1,1.185721517E0,-1.491204090E-2,-1.355095148E0,1.800677857E0
8.925439270E-1,1.200382352E0,2.968108095E-2,-1.289121866E0,1.761713354E0
8.949897610E-1,1.215043068E0,5.594826490E-2,-1.225591898E0,1.726712300E0
8.974347610E-1,1.221762538E0,8.221544325E-2,-1.154120684E0,1.682693564E0
8.998789790E-1,1.217486501E0,1.243651062E-1,-1.078984380E0,1.631547533E0
9.023239790E-1,1.204658389E0,1.836189926E-1,-1.001404524E0,1.577253559E0
9.047697610E-1,1.194884539E0,2.459271997E-1,-9.195485115E-1,1.527677555E0
9.072147610E-1,1.193051934E0,3.039593399E-1,-8.340274692E-1,1.487066245E0
9.096589790E-1,1.199160576E0,3.638240695E-1,-7.442303896E-1,1.457474841E0
9.121039790E-1,1.202214956E0,4.334626496E-1,-6.489354968E-1,1.433292695E0
9.145498130E-1,1.206490993E0,5.110424757E-1,-5.511971116E-1,1.421479224E0
9.169948130E-1,1.210156202E0,5.910657644E-1,-4.479610026E-1,1.419332883E0
9.194389790E-1,1.213210464E0,6.753650904E-1,-3.416705430E-1,1.429942794E0
9.218840310E-1,1.210767031E0,7.578318715E-1,-2.329366058E-1,1.447247529E0
9.243298130E-1,1.208934426E0,8.286921382E-1,-1.211483628E-1,1.470690325E0
9.267748130E-1,1.201604009E0,8.848916888E-1,-9.970994666E-3,1.492308586E0
9.292190310E-1,1.188775897E0,9.245979190E-1,9.815205634E-2,1.509206173E0
9.316640310E-1,1.171671629E0,9.417021275E-1,2.026099414E-1,1.516795336E0
9.341098130E-1,1.149069667E0,9.288739562E-1,3.021808565E-1,1.508138321E0
9.365548130E-1,1.116693854E0,8.971089721E-1,3.956431746E-1,1.486049526E0
9.389990310E-1,1.067213774E0,8.451855183E-1,4.781099260E-1,1.442869675E0
9.414440310E-1,1.011014223E0,7.712708712E-1,5.514137149E-1,1.386025108E0
9.438898650E-1,9.517604113E-1,6.655912995E-1,6.155545115E-1,1.314445516E0
9.463348650E-1,8.882304430E-1,5.312010050E-1,6.729757786E-1,1.234513761E0
9.487790830E-1,8.222570419E-1,3.717653155E-1,7.175689340E-1,1.152918587E0
9.512240830E-1,7.513967752E-1,1.921710968E-1,7.542207837E-1,1.081839098E0
9.536698650E-1,6.756495237E-1,5.857357290E-3,7.817097306E-1,1.033250546E0
9.561148650E-1,5.950154066E-1,-1.786237955E-1,7.982030511E-1,1.011473136E0
9.585590830E-1,5.094943047E-1,-3.612723649E-1,8.067551851E-1,1.020272560E0
9.610040830E-1,4.264167249E-1,-5.365905166E-1,8.030899763E-1,1.055800225E0
9.634498650E-1,3.457825780E-1,-6.954153180E-1,7.908726931E-1,1.108443807E0
9.658948650E-1,2.682027519E-1,-8.316381574E-1,7.646055222E-1,1.161109963E0
9.683390830E-1,2.058945745E-1,-9.550328255E-1,7.297862172E-1,1.219454057E0
9.707840830E-1,1.521384865E-1,-1.056436419E0,6.833604574E-1,1.267353756E0
9.732299170E-1,1.020475700E-1,-1.134627104E0,6.277717948E-1,1.300726642E0
9.756749170E-1,5.867617205E-2,-1.187772274E0,5.648527145E-1,1.316550211E0
9.781191360E-1,2.446774766E-2,-1.218315482E0,4.958249927E-1,1.315573528E0
9.805641360E-1,-3.632030450E-3,-1.229921937E0,4.231320918E-1,1.300677489E0
9.830099170E-1,-2.379056811E-2,-1.222591639E0,3.455522656E-1,1.270709516E0
9.854549170E-1,-3.600785881E-2,-1.198156953E0,2.679724395E-1,1.228285748E0
9.878991360E-1,-4.089477658E-2,-1.152342081E0,1.916143745E-1,1.168880115E0
9.903441360E-1,-4.028391466E-2,-1.082092643E0,1.213649213E-1,1.089622286E0
9.927899170E-1,-3.417526558E-2,-9.861869216E-1,5.661325902E-2,9.884015653E-1
9.952349690E-1,-2.012537792E-2,-8.640139699E-1,1.635434572E-3,8.642498746E-1
9.976791360E-1,1.865752041E-3,-7.131304145E-1,-4.173595831E-2,7.143531055E-1
1.000124136E0,2.996552736E-2,-5.396448374E-1,-7.105746865E-2,5.451271844E-1
1.002569969E0,7.089346647E-2,-3.435572684E-1,-8.999428153E-2,3.621552857E-1
1.005014969E0,1.228169575E-1,-1.291437447E-1,-9.182687104E-2,2.004851269E-1
1.007459188E0,1.863469034E-1,9.382188320E-2,-7.960957289E-2,2.233056163E-1
1.009904188E0,2.553746104E-1,3.290047944E-1,-5.150979385E-2,4.196589153E-1
1.012349969E0,3.286783695E-1,5.739615560E-1,-5.694942549E-3,6.614331188E-1
1.014794969E0,3.995386660E-1,8.311356306E-1,5.355893821E-2,9.237348873E-1
1.017239188E0,4.569599628E-1,1.107857347E0,1.250301003E-1,1.204903662E0
1.019684188E0,5.076617599E-1,1.384579062E0,2.099403143E-1,1.489582015E0
1.022130021E0,5.485896468E-1,1.651526928E0,3.021808565E-1,1.766296992E0
1.024575021E0,5.736351013E-1,1.910533547E0,4.035844207E-1,2.035209092E0
1.027019240E0,5.882958770E-1,2.140218735E0,5.129292011E-1,2.278096714E0
1.029464240E0,5.980697274E-1,2.322867155E0,6.259391904E-1,2.478951207E0
1.031910021E0,5.986805558E-1,2.460922718E0,7.371165752E-1,2.637783137E0
1.034355021E0,5.834089518E-1,2.565380573E0,8.495156765E-1,2.764637476E0
1.036799240E0,5.492005348E-1,2.639295101E0,9.588604569E-1,2.861278252E0
1.039244240E0,5.021639466E-1,2.676558018E0,1.062707305E0,2.923265001E0
1.041690021E0,4.453535378E-1,2.683277369E0,1.156780481E0,2.955750039E0
1.044135021E0,3.763258159E-1,2.660064697E0,1.242912412E0,2.960134554E0
1.046579240E0,3.024111986E-1,2.606308460E0,1.322935700E0,2.938444349E0
1.049024240E0,2.229987830E-1,2.527506828E0,1.393796086E0,2.894941581E0
1.051470073E0,1.417537779E-1,2.419384003E0,1.456715107E0,2.827637174E0
1.053915073E0,7.211519778E-2,2.275830746E0,1.511692882E0,2.733097428E0
1.056359292E0,1.041785814E-2,2.091960430E0,1.559340358E0,2.609204730E0
1.058804292E0,-4.333823919E-2,1.880601168E0,1.603933454E0,2.472072304E0
1.061250073E0,-9.648346901E-2,1.655802965E0,1.643639684E0,2.335068292E0
1.063695073E0,-1.600133926E-1,1.437724233E0,1.676626444E0,2.214437059E0
1.066139292E0,-2.278193682E-1,1.219034672E0,1.704115272E0,2.107594851E0
1.068584292E0,-2.858515382E-1,9.679692984E-1,1.726106405E0,1.999529691E0
1.071030073E0,-3.328881264E-1,6.723107696E-1,1.741988897E0,1.896665915E0
1.073475073E0,-3.799247146E-1,3.516067863E-1,1.751151919E0,1.826062202E0
1.075919292E0,-4.458980858E-1,4.067664593E-2,1.752373576E0,1.808671569E0
1.078364292E0,-5.509667993E-1,-2.256603688E-1,1.744432330E0,1.843239314E0
1.080810125E0,-6.951308846E-1,-4.229696989E-1,1.723662972E0,1.906075643E0
1.083255125E0,-8.802229166E-1,-5.457534790E-1,1.683956742E0,1.976954616E0
1.085699344E0,-1.073256135E0,-6.306636930E-1,1.627146363E0,2.048711964E0
1.088144344E0,-1.237578750E0,-7.186281681E-1,1.545290470E0,2.106169566E0
1.090590125E0,-1.357308269E0,-8.163665533E-1,1.443886995E0,2.143256807E0
1.093035125E0,-1.436109781E0,-9.098288417E-1,1.323546648E0,2.154524438E0
1.095479344E0,-1.475205183E0,-9.721370339E-1,1.194043279E0,2.132374286E0
1.097924344E0,-1.480092049E0,-9.819108844E-1,1.067594290E0,2.072336610E0
1.100370177E0,-1.451992273E0,-9.428155422E-1,9.466431737E-1,1.973148754E0
1.102815177E0,-1.387240648E0,-8.664574623E-1,8.366875052E-1,1.837180212E0
1.105259344E0,-1.285226226E0,-7.619996071E-1,7.438361049E-1,1.669054224E0
1.107704396E0,-1.163053274E0,-6.263875961E-1,6.705323458E-1,1.481441179E0
1.110150177E0,-1.022554398E0,-4.791692495E-1,6.228848696E-1,1.289653530E0
1.112595177E0,-8.704490662E-1,-3.362269104E-1,6.021154523E-1,1.110528311E0
1.115039396E0,-7.360588312E-1,-1.590761244E-1,6.088349819E-1,9.683841446E-1
1.117484396E0,-6.554247141E-1,9.993052483E-2,6.454868913E-1,9.253221020E-1
1.119930177E0,-6.303792596E-1,4.151366949E-1,7.004647255E-1,1.029741384E0
1.122375177E0,-6.297683716E-1,7.169039249E-1,7.707141638E-1,1.226604974E0
1.124819396E0,-6.297683716E-1,9.319282770E-1,8.470722437E-1,1.408058913E0
1.127264396E0,-6.120532751E-1,1.033331871E0,9.209868908E-1,1.513473099E0
1.129710229E0,-5.815100670E-1,1.027223229E0,9.869602323E-1,1.538646165E0
1.132155229E0,-5.375277996E-1,9.233762026E-1,1.038272738E0,1.489822146E0
1.134599448E0,-4.819391072E-1,7.407276034E-1,1.074313760E0,1.391076109E0
1.137044448E0,-4.294047356E-1,5.147076845E-1,1.091418028E0,1.280822290E0
1.139490229E0,-3.958071768E-1,2.905203104E-1,1.095083237E0,1.200113606E0
1.141935229E0,-3.903093934E-1,9.809793532E-2,1.081644177E0,1.154087845E0
1.144379448E0,-4.049701691E-1,-6.011603400E-2,1.051711798E0,1.128588712E0
1.146824448E0,-4.251286983E-1,-1.938954145E-1,1.005286217E0,1.108571251E0
1.149270229E0,-4.428437650E-1,-2.995750308E-1,9.380910993E-1,1.079754930E0
1.151715281E0,-4.581153989E-1,-3.747113645E-1,8.513482809E-1,1.036856895E0
1.154159448E0,-4.678892195E-1,-4.131958485E-1,7.468904257E-1,9.733942875E-1
1.156604500E0,-4.654457569E-1,-4.186936319E-1,6.253283620E-1,8.848613848E-1
1.159050281E0,-4.477306902E-1,-3.936481774E-1,4.921598136E-1,7.730736968E-1
1.161495281E0,-4.135222733E-1,-3.417246938E-1,3.528826535E-1,6.421079379E-1
1.163939500E0,-3.634313643E-1,-2.708643675E-1,2.093294412E-1,4.992681415E-1
1.166384500E0,-2.980688214E-1,-1.810672432E-1,6.638709456E-2,3.550177674E-1
1.168830281E0,-2.204889953E-1,-7.783110440E-2,-7.411178946E-2,2.452868427E-1
1.171275281E0,-1.392439902E-1,4.312010109E-2,-2.103346139E-1,2.559079556E-1
1.173719500E0,-5.983158574E-2,1.695691049E-1,-3.343401551E-1,3.796272373E-1
1.176164500E0,1.530477498E-2,2.990724146E-1,-4.491827488E-1,5.398552465E-1
1.178610333E0,8.066730201E-2,4.212453663E-1,-5.511971116E-1,6.984075659E-1
1.181055333E0,1.332016736E-1,5.312010050E-1,-6.403833628E-1,8.426197511E-1
1.183499552E0,1.747404784E-1,6.197764277E-1,-7.179631591E-1,9.644315180E-1
1.185944552E0,2.077271640E-1,6.778085828E-1,-7.808822393E-1,1.054681052E0
1.188390333E0,2.303291708E-1,7.022431493E-1,-8.328057528E-1,1.113446177E0
1.190835333E0,2.517094314E-1,6.930801868E-1,-8.731228113E-1,1.142830358E0
1.193279552E0,2.688136399E-1,6.509305239E-1,-9.042769074E-1,1.146162312E0
1.195724552E0,2.761439979E-1,5.849571228E-1,-9.287115335E-1,1.131784191E0
1.198170333E0,2.755331397E-1,4.994360507E-1,-9.494808912E-1,1.107641116E0
1.200615333E0,2.651484311E-1,4.029194117E-1,-9.671959877E-1,1.080794070E0
1.203059552E0,2.474333644E-1,2.923528850E-1,-9.836893082E-1,1.055622155E0
1.205504552E0,2.193336040E-1,1.775103360E-1,-1.002015352E0,1.040986030E0
1.207950386E0,1.857360452E-1,5.655913055E-2,-1.025839090E0,1.044051078E0
1.210395386E0,1.503058821E-1,-7.233332098E-2,-1.053328037E0,1.066453900E0
1.212839604E0,1.173191816E-1,-2.128322124E-1,-1.085703850E0,1.112570982E0
1.215284604E0,9.654978663E-2,-3.612723649E-1,-1.123577476E0,1.184173098E0
1.217730386E0,6.845000386E-2,-5.078798532E-1,-1.163283706E0,1.271163376E0
1.220175386E0,6.234135479E-2,-6.496004462E-1,-1.204211593E0,1.369668845E0
1.222619604E0,4.401541874E-2,-7.821581364E-1,-1.247583032E0,1.473150409E0
1.225064604E0,4.890233651E-2,-8.835616708E-1,-1.288510919E0,1.563116455E0
1.227510386E0,3.546331078E-2,-9.709153175E-1,-1.332493186E0,1.649082257E0
1.229955386E0,3.973936290E-2,-1.026504040E0,-1.377697229E0,1.718528270E0
1.232399604E0,3.790676966E-2,-1.068653703E0,-1.422901154E0,1.779917232E0
1.234844604E0,4.951319844E-2,-1.096142530E0,-1.466272593E0,1.831375254E0
1.237290438E0,7.455865294E-2,-1.118744612E0,-1.507200480E0,1.878510523E0
1.239735438E0,9.777151048E-2,-1.131572723E0,-1.545074105E0,1.917620945E0
1.242179656E0,1.466407031E-1,-1.138292193E0,-1.575006485E0,1.948809391E0
1.244624656E0,1.869577765E-1,-1.141957402E0,-1.599441051E0,1.974140723E0
1.247070438E0,2.553746104E-1,-1.129129291E0,-1.615323544E0,1.987314594E0
1.249515438E0,3.054655194E-1,-1.114468575E0,-1.623875737E0,1.993068438E0
1.251959656E0,3.751040995E-1,-1.069875360E0,-1.627540827E0,1.983488219E0
1.254404656E0,4.245841205E-1,-1.010010719E0,-1.626319170E0,1.960945530E0
1.256850490E0,4.740641713E-1,-9.183809757E-1,-1.622653961E0,1.923841556E0
1.259295490E0,5.192681551E-1,-8.157556653E-1,-1.619599581E0,1.886319041E0
1.261739708E0,5.540874600E-1,-7.076326013E-1,-1.616545320E0,1.849587949E0
1.264184708E0,6.084544063E-1,-6.025639176E-1,-1.612269282E0,1.825571767E0
1.266630490E0,6.481606364E-1,-5.121558905E-1,-1.611658335E0,1.811037950E0
1.269075490E0,7.104688287E-1,-4.241914153E-1,-1.607993245E0,1.808409962E0
1.271519708E0,7.593380213E-1,-3.618832231E-1,-1.604938865E0,1.812010612E0
1.273964708E0,8.253113627E-1,-3.014076054E-1,-1.598219395E0,1.823812113E0
1.276410490E0,8.790674806E-1,-2.598688006E-1,-1.588445544E0,1.833971285E0
1.278855490E0,9.322127104E-1,-2.067235708E-1,-1.571952224E0,1.839235973E0
1.281299708E0,9.743623734E-1,-1.529674679E-1,-1.551182747E0,1.838191773E0
1.283744708E0,9.963535070E-1,-8.577235043E-2,-1.527359009E0,1.825623934E0
1.286190542E0,1.022620678E0,-8.192529902E-3,-1.501091838E0,1.816341618E0
1.288635542E0,1.020177245E0,6.022431701E-2,-1.477268100E0,1.796304434E0
1.291079761E0,1.035448909E0,1.292520314E-1,-1.449779272E0,1.786258791E0
1.293524761E0,1.027507663E0,1.701799631E-1,-1.425955534E0,1.765809277E0
1.295970542E0,1.036059737E0,2.080535740E-1,-1.400299191E0,1.754292990E0
1.298415542E0,1.023231506E0,2.202708870E-1,-1.374032021E0,1.727277040E0
1.300859761E0,1.017122865E0,2.221034616E-1,-1.345932245E0,1.701588222E0
1.303304761E0,1.010403395E0,1.940036863E-1,-1.311113000E0,1.666604257E0
1.305750542E0,9.932991862E-1,1.555192173E-1,-1.273239374E0,1.622334122E0
1.308195594E0,9.835253358E-1,1.182564646E-1,-1.229867935E0,1.579202905E0
1.310639761E0,9.505386353E-1,7.793939114E-2,-1.182220459E0,1.518961309E0
1.313084761E0,9.395430684E-1,4.922875017E-2,-1.130296946E0,1.470624300E0
1.315530594E0,9.083889723E-1,1.502032764E-2,-1.077151775E0,1.409131677E0
1.317975594E0,8.937282562E-1,-2.102068998E-2,-1.020952225E0,1.357031875E0
1.320419813E0,8.809000850E-1,-5.400738493E-2,-9.653633833E-1,1.307986322E0
1.322864813E0,8.619632721E-1,-8.393975347E-2,-9.085530043E-1,1.255187287E0
1.325310594E0,8.338634968E-1,-9.310272336E-2,-8.511316776E-1,1.195165922E0
1.327755594E0,7.996550798E-1,-7.111158967E-2,-7.937104106E-1,1.128929281E0
1.330199813E0,7.562837005E-1,-4.362268373E-2,-7.387325764E-1,1.058108592E0
1.332644813E0,7.171883583E-1,-1.063598879E-2,-6.855873466E-1,9.922208803E-1
1.335090646E0,6.780930161E-1,1.929638349E-2,-6.342747211E-1,9.287017341E-1
1.337535646E0,6.475497484E-1,2.479416318E-2,-5.811294913E-1,8.704291544E-1
1.339979813E0,6.286129355E-1,1.196600683E-2,-5.224864483E-1,8.174897533E-1
1.342424865E0,6.121196151E-1,-6.359937135E-3,-4.595674276E-1,7.654626657E-1
1.344870646E0,5.950154066E-1,-2.651847154E-2,-3.905397356E-1,7.122273854E-1
1.347315646E0,5.815763474E-1,-5.278565735E-2,-3.154033720E-1,6.636992244E-1
1.349759865E0,5.754677057E-1,-8.516147733E-2,-2.359909266E-1,6.277796389E-1
1.352204865E0,5.718025565E-1,-1.169264466E-1,-1.516916007E-1,6.030259524E-1
1.354650646E0,5.583634973E-1,-1.297546029E-1,-6.617055833E-2,5.770481738E-1
1.357095646E0,5.388158560E-1,-1.303654760E-1,1.873964630E-2,5.546790589E-1
1.359539865E0,5.094943047E-1,-1.187590361E-1,1.024281085E-1,5.330850519E-1
1.361984865E0,4.771184921E-1,-1.053200215E-1,1.842840016E-1,5.222020258E-1
1.364430698E0,4.398557544E-1,-9.737877548E-2,2.649181187E-1,5.226254110E-1
1.366875698E0,4.056473374E-1,-9.982223809E-2,3.412761986E-1,5.394290364E-1
1.369319917E0,3.757149577E-1,-1.267002821E-1,4.115256667E-1,5.714613419E-1
1.371764917E0,3.500586450E-1,-1.780129224E-1,4.762773216E-1,6.173084663E-1
1.374210698E0,3.250131905E-1,-2.513166964E-1,5.398072600E-1,6.783697619E-1
1.376655698E0,3.011894524E-1,-3.362269104E-1,6.002829075E-1,7.510680332E-1
1.379099917E0,2.755331397E-1,-4.296891987E-1,6.583150625E-1,8.330246336E-1
1.381544917E0,2.468225062E-1,-5.225405693E-1,7.139037251E-1,9.184925285E-1
1.383990698E0,2.132249475E-1,-6.086725593E-1,7.639946342E-1,9.998174652E-1
1.386435750E0,1.747404784E-1,-6.819763184E-1,8.061442971E-1,1.070277796E0
1.388879917E0,1.277038902E-1,-7.375649810E-1,8.403527141E-1,1.125390185E0
1.391324969E0,7.455865294E-2,-7.711625695E-1,8.635655642E-1,1.160170757E0
1.393770750E0,1.774823293E-2,-7.839907408E-1,8.776154518E-1,1.176930483E0
1.396215750E0,-3.600785881E-2,-7.809363604E-1,8.812806606E-1,1.178055078E0
1.398659969E0,-8.609876782E-2,-7.681082487E-1,8.727285266E-1,1.165786585E0
1.401104969E0,-1.251941025E-1,-7.485605478E-1,8.550134897E-1,1.143269227E0
1.403550750E0,-1.508504152E-1,-7.326780558E-1,8.287463188E-1,1.116419922E0
1.405995750E0,-1.661220342E-1,-7.186281681E-1,7.988139391E-1,1.087256494E0
1.408439969E0,-1.691763550E-1,-7.003022432E-1,7.658272386E-1,1.051444354E0
1.410884969E0,-1.612351239E-1,-6.728133559E-1,7.322296500E-1,1.007390112E0
1.413330802E0,-1.471852362E-1,-6.233332753E-1,6.980212331E-1,9.473338945E-1
1.415775802E0,-1.325244755E-1,-5.414774418E-1,6.668671370E-1,8.691791156E-1
1.418220021E0,-1.184745952E-1,-4.174719155E-1,6.381564736E-1,7.717270986E-1
1.420665021E0,-1.038138419E-1,-2.555927634E-1,6.131110191E-1,6.723169612E-1
1.423110802E0,-9.037481993E-2,-6.194862723E-2,5.905090570E-1,6.005882008E-1
1.425555802E0,-7.143801451E-2,1.549083441E-1,5.679070354E-1,5.929741865E-1
1.428000021E0,-3.967304900E-2,3.650457859E-1,5.465267897E-1,6.584253249E-1
1.430445021E0,9.806993417E-3,5.525813103E-1,5.312551856E-1,7.665992133E-1
1.432890802E0,6.478481740E-2,7.297320366E-1,5.190379024E-1,8.978342062E-1
1.435335802E0,1.179300472E-1,9.044393897E-1,5.165944099E-1,1.048230838E0
1.437780021E0,1.704644263E-1,1.067540288E0,5.227030516E-1,1.200799262E0
1.440225021E0,2.113923579E-1,1.229419351E0,5.404181480E-1,1.359489038E0
1.442670854E0,2.352160811E-1,1.398628950E0,5.715722442E-1,1.529112283E0
1.445115854E0,2.468225062E-1,1.569671035E0,6.112784743E-1,1.702483445E0
1.447560073E0,2.541528642E-1,1.731550217E0,6.534281373E-1,1.868108177E0
1.450005073E0,2.620941103E-1,1.876935959E0,6.992429495E-1,2.020030351E0
1.452450854E0,2.639267147E-1,2.006439447E0,7.481121421E-1,2.157574644E0
1.454895854E0,2.596506476E-1,2.125557899E0,7.945378423E-1,2.284010776E0
1.457340073E0,2.443790585E-1,2.228183270E0,8.391309977E-1,2.393462479E0
1.459785073E0,2.254422456E-1,2.297821760E0,8.806697726E-1,2.471110741E0
1.462230854E0,2.132249475E-1,2.326532364E0,9.203760028E-1,2.511037575E0
1.464675906E0,2.034511119E-1,2.312482595E0,9.564170241E-1,2.510717354E0
1.467120073E0,1.918446869E-1,2.270943642E0,9.900145531E-1,2.484777298E0
1.469565125E0,1.704644263E-1,2.218409300E0,1.020557642E0,2.447843100E0
1.472010906E0,1.423646510E-1,2.157933712E0,1.049879193E0,2.403994992E0
1.474455906E0,1.051018909E-1,2.095014811E0,1.078589797E0,2.358705029E0
1.476900125E0,5.684357882E-2,2.038815260E0,1.106689572E0,2.320508708E0
1.479345125E0,3.698346205E-3,1.975285292E0,1.133567691E0,2.277441848E0
1.481790906E0,-5.127947778E-2,1.903814077E0,1.159834862E0,2.229877695E0
1.484235906E0,-1.129768118E-1,1.825623393E0,1.186102033E0,2.180023524E0
1.486680125E0,-1.807827950E-1,1.748654366E0,1.209314942E0,2.133756579E0
1.489125125E0,-2.516431212E-1,1.667409420E0,1.227029920E0,2.085468978E0
1.491570958E0,-3.243360221E-1,1.584942698E0,1.239858150E0,2.038255491E0
1.494015958E0,-3.951963186E-1,1.496367335E0,1.247188449E0,1.987655493E0
1.496460177E0,-4.648348987E-1,1.400461555E0,1.249021053E0,1.933240192E0
1.498905177E0,-5.308082700E-1,1.299668908E0,1.244134188E0,1.875837564E0
1.501350958E0,-5.986142755E-1,1.201930523E0,1.231916904E0,1.822250063E0
1.503795958E0,-6.725289226E-1,1.117020249E0,1.215423584E0,1.782493724E0
1.506240177E0,-7.494978905E-1,1.048603415E0,1.192821503E0,1.756171788E0
1.508685177E0,-8.246341944E-1,9.887386560E-1,1.165332675E0,1.736555766E0
1.511130958E0,-8.906075954E-1,9.325391650E-1,1.135400295E0,1.718122526E0
1.513575958E0,-9.474180341E-1,8.867242932E-1,1.103635311E0,1.703493999E0
1.516020177E0,-9.932329059E-1,8.506832719E-1,1.072481155E0,1.691268596E0
1.518465177E0,-1.031106472E0,8.317464590E-1,1.043770552E0,1.686546677E0
1.520911011E0,-1.053708434E0,8.195291758E-1,1.017503381E0,1.678464377E0
1.523356011E0,-1.055541039E0,7.993706465E-1,9.985666871E-1,1.658401563E0
1.525800229E0,-1.034771681E0,7.651622295E-1,9.863494039E-1,1.621453304E0
1.528245229E0,-9.920111299E-1,7.065191865E-1,9.839059114E-1,1.565671193E0
1.530691011E0,-9.290921092E-1,6.179438233E-1,9.887928367E-1,1.490898384E0
1.533136011E0,-8.618969917E-1,5.061555505E-1,1.003453612E0,1.416325887E0
1.535580229E0,-8.087517619E-1,3.949781656E-1,1.026055455E0,1.364872507E0
1.538025229E0,-7.904257774E-1,3.064027727E-1,1.047435760E0,1.347507789E0
1.540471063E0,-8.105843067E-1,2.392076701E-1,1.068816066E0,1.362583946E0
1.542916063E0,-8.618969917E-1,1.732342839E-1,1.085309386E0,1.396700757E0
1.545360229E0,-9.284812212E-1,8.526977897E-2,1.090196252E0,1.434529951E0
1.547805229E0,-9.944546223E-1,-3.995749727E-2,1.081033349E0,1.469411344E0
1.550251063E0,-1.047599792E0,-2.109996229E-1,1.054155231E0,1.501076086E0
1.552696063E0,-1.079364777E0,-4.217479527E-1,1.005897045E0,1.534512470E0
1.555140281E0,-1.089138627E0,-6.502113342E-1,9.411454201E-1,1.579478531E0
1.557585281E0,-1.086695194E0,-8.676791787E-1,8.611221313E-1,1.635635940E0
1.560031063E0,-1.068980098E0,-1.058879852E0,7.676598430E-1,1.689155595E0
1.562476063E0,-1.036604285E0,-1.220148087E0,6.699214578E-1,1.735541575E0
1.564920281E0,-9.993414879E-1,-1.342321038E0,5.685179234E-1,1.767405389E0
1.567365281E0,-9.571918845E-1,-1.422955155E0,4.646708965E-1,1.776777060E0
1.569811115E0,-9.162639380E-1,-1.458385348E0,3.638782203E-1,1.760350757E0
1.572256115E0,-8.771685958E-1,-1.449222445E0,2.661398649E-1,1.714788870E0
1.574700333E0,-8.307428956E-1,-1.411959648E0,1.702340990E-1,1.647040818E0
1.577145333E0,-7.794302106E-1,-1.349651456E0,7.982611656E-2,1.560590502E0
1.579591115E0,-7.183437347E-1,-1.264741302E0,-8.749265224E-3,1.454532513E0
1.582036115E0,-6.493160725E-1,-1.162115932E0,-9.488119185E-2,1.334588791E0
1.584480333E0,-5.717362165E-1,-1.053992867E0,-1.810131073E-1,1.212661952E0
1.586925333E0,-4.856043160E-1,-9.458698630E-1,-2.671450377E-1,1.096288201E0
1.589371115E0,-3.933637440E-1,-8.408011198E-1,-3.538878262E-1,9.934375429E-1
1.591816115E0,-2.999014258E-1,-7.424519062E-1,-4.394088984E-1,9.133760880E-1
1.594260333E0,-2.088825703E-1,-6.459352970E-1,-5.224864483E-1,8.566542037E-1
1.596705333E0,-1.258049607E-1,-5.518621206E-1,-6.037314534E-1,8.275689435E-1
1.599151167E0,-5.372293666E-2,-4.583998322E-1,-6.843656301E-1,8.254531337E-1
1.601596167E0,9.196128696E-3,-3.655484021E-1,-7.564476728E-1,8.401924094E-1
1.604040386E0,6.295222044E-2,-2.745295465E-1,-8.211992979E-1,8.681576705E-1
1.606485386E0,1.118214056E-1,-1.841215640E-1,-8.755663037E-1,9.016768431E-1
1.608931167E0,1.594688594E-1,-9.860050678E-2,-9.195485115E-1,9.384678162E-1
1.611376167E0,2.077271640E-1,-1.735549979E-2,-9.543678164E-1,9.768672976E-1
1.613820386E0,2.565963268E-1,5.961345136E-2,-9.812458754E-1,1.015991588E0
1.616265386E0,3.079089820E-1,1.335280836E-1,-1.003237128E0,1.057885828E0
1.618711167E0,3.579998910E-1,2.068318576E-1,-1.021563053E0,1.102059168E0
1.621156219E0,4.050364494E-1,2.776921391E-1,-1.037445545E0,1.147806913E0
1.623600386E0,4.453535378E-1,3.442763984E-1,-1.055771470E0,1.196461203E0
1.626045438E0,4.771184921E-1,4.059737325E-1,-1.078373432E0,1.247135111E0
1.628491219E0,5.015531182E-1,4.523994625E-1,-1.105251551E0,1.295299886E0
1.630936219E0,5.174355507E-1,4.768340290E-1,-1.145568609E0,1.344409788E0
1.633380438E0,5.241550803E-1,4.756123126E-1,-1.192605138E0,1.386813843E0
1.635825438E0,5.198790431E-1,4.505668581E-1,-1.250026464E0,1.426832462E0
1.638271219E0,5.033856630E-1,4.010868073E-1,-1.315389037E0,1.464416632E0
1.640716219E0,4.746750295E-1,3.302265108E-1,-1.385027528E0,1.500888798E0
1.643160438E0,4.343579710E-1,2.428728789E-1,-1.455887914E0,1.538591466E0
1.645605438E0,3.842670619E-1,1.402475983E-1,-1.526137352E0,1.580008158E0
1.648051271E0,3.360087574E-1,1.990724541E-2,-1.589667201E0,1.624912303E0
1.650496271E0,2.950808108E-1,-1.248676926E-1,-1.644034266E0,1.674966655E0
1.652940490E0,2.700353563E-1,-2.959098220E-1,-1.685572982E0,1.732523591E0
1.655385490E0,2.590397894E-1,-4.785583913E-1,-1.713061929E0,1.797415066E0
1.657831271E0,2.578180730E-1,-6.605960131E-1,-1.725279212E0,1.865327213E0
1.660276271E0,2.620941103E-1,-8.212534785E-1,-1.726500988E0,1.929755492E0
1.662720490E0,2.645375729E-1,-9.544219971E-1,-1.714283705E0,1.979815672E0
1.665165490E0,2.627049685E-1,-1.052160382E0,-1.691681623E0,2.009438251E0
1.667611271E0,2.565963268E-1,-1.117522836E0,-1.663581848E0,2.020446369E0
1.670056323E0,2.504876852E-1,-1.154785633E0,-1.631816983E0,2.014720975E0
1.672500490E0,2.468225062E-1,-1.163948536E0,-1.599441051E0,1.993466634E0
1.674945490E0,2.394921333E-1,-1.148066044E0,-1.568287015E0,1.958299335E0
1.677391323E0,2.358269542E-1,-1.115079403E0,-1.539576411E0,1.915544819E0
1.679836323E0,2.388812751E-1,-1.082092643E0,-1.512698293E0,1.875165293E0
1.682280542E0,2.517094314E-1,-1.060712457E0,-1.489485502E0,1.845815705E0
1.684725542E0,2.749222815E-1,-1.058269024E0,-1.468716025E0,1.831022215E0
1.687171323E0,3.042437732E-1,-1.074151397E0,-1.450390100E0,1.830299686E0
1.689616323E0,3.360087574E-1,-1.103472948E0,-1.433285832E0,1.839799638E0
1.692060542E0,3.604433239E-1,-1.137681365E0,-1.411294818E0,1.848240066E0
1.694505542E0,3.757149577E-1,-1.165170312E0,-1.391747117E0,1.853575902E0
1.696951323E0,3.781584203E-1,-1.183496237E0,-1.371588588E0,1.850654584E0
1.699396375E0,3.689954281E-1,-1.187161446E0,-1.348375678E0,1.834019327E0
1.701840542E0,3.494477570E-1,-1.173722386E0,-1.326995373E0,1.805728300E0
1.704285542E0,3.292892277E-1,-1.154174685E0,-1.304393411E0,1.772566718E0
1.706731375E0,3.158501983E-1,-1.133405328E0,-1.281791449E0,1.739930545E0
1.709176375E0,3.048546314E-1,-1.105916381E0,-1.257356882E0,1.702038107E0
1.711620594E0,2.950808108E-1,-1.073540568E0,-1.232311368E0,1.660768902E0
1.714065594E0,2.914156318E-1,-1.041775584E0,-1.202989936E0,1.617839369E0
1.716511375E0,2.950808108E-1,-1.019784570E0,-1.170614004E0,1.580307059E0
1.718956375E0,3.072980940E-1,-1.010621548E0,-1.133962154E0,1.549728427E0
1.721400594E0,3.244023323E-1,-1.010010719E0,-1.094866872E0,1.524497292E0
1.723845594E0,3.415065408E-1,-1.013064981E0,-1.051495433E0,1.499523263E0
1.726291427E0,3.525021076E-1,-1.007567286E0,-1.005680561E0,1.466575250E0
1.728736427E0,3.579998910E-1,-9.929064512E-1,-9.580330253E-1,1.425431310E0
1.731180646E0,3.561672866E-1,-9.696936011E-1,-9.079421163E-1,1.375325308E0
1.733625646E0,3.500586450E-1,-9.403721094E-1,-8.584620953E-1,1.320529412E0
1.736071427E0,3.470043242E-1,-9.122723341E-1,-8.102037311E-1,1.268496314E0
1.738516427E0,3.494477570E-1,-8.860051036E-1,-7.649997473E-1,1.221615075E0
1.740960646E0,3.549455404E-1,-8.664574623E-1,-7.228500843E-1,1.182897762E0
1.743405646E0,3.659411073E-1,-8.456880450E-1,-6.825330257E-1,1.146713781E0
1.745851427E0,3.763258159E-1,-8.224751949E-1,-6.446594000E-1,1.110708021E0
1.748296427E0,3.867105246E-1,-7.974297404E-1,-6.067857742E-1,1.074070853E0
1.750740646E0,3.922083080E-1,-7.583343983E-1,-5.676904917E-1,1.025266263E0
1.753185646E0,3.964843452E-1,-7.051891685E-1,-5.279842615E-1,9.660533006E-1
1.755631479E0,4.007604122E-1,-6.459352970E-1,-4.846128821E-1,9.014937390E-1
1.758076479E0,4.099233747E-1,-5.848488212E-1,-4.394088984E-1,8.385496388E-1
1.760520698E0,4.245841205E-1,-5.255949497E-1,-3.887071311E-1,7.794966070E-1
1.762965698E0,4.435209334E-1,-4.663410783E-1,-3.386162221E-1,7.272178254E-1
1.765411479E0,4.673446715E-1,-4.095306695E-1,-2.848601341E-1,6.835727519E-1
1.767856479E0,4.917792380E-1,-3.588289022E-1,-2.280496955E-1,6.500858894E-1
1.770300698E0,5.137704015E-1,-3.062945306E-1,-1.712392718E-1,6.221730090E-1
1.772745698E0,5.278202891E-1,-2.562036216E-1,-1.144288629E-1,5.977696195E-1
1.775191479E0,5.363723636E-1,-2.103887498E-1,-5.822930858E-2,5.790935942E-1
1.777636531E0,5.351506472E-1,-1.688499600E-1,-3.862347454E-3,5.611697086E-1
1.780080698E0,5.327072144E-1,-1.431936324E-1,4.622856155E-2,5.535507858E-1
1.782525750E0,5.253767967E-1,-1.364741176E-1,9.815205634E-2,5.516156175E-1
1.784971531E0,5.211007595E-1,-1.480805427E-1,1.482429802E-1,5.616492054E-1
1.787416531E0,5.131595135E-1,-1.725151390E-1,1.995556206E-1,5.769892591E-1
1.789860750E0,5.033856630E-1,-2.024475187E-1,2.520899773E-1,5.982737502E-1
1.792305750E0,4.899466634E-1,-2.390993983E-1,3.076786399E-1,6.260051123E-1
1.794751531E0,4.771184921E-1,-2.788056135E-1,3.657107949E-1,6.626605550E-1
1.797196531E0,4.649012089E-1,-3.179009557E-1,4.274081290E-1,7.070161670E-1
1.799640750E0,4.502404630E-1,-3.508876562E-1,4.891054630E-1,7.517065756E-1
1.802085750E0,4.386340082E-1,-3.789874315E-1,5.495811105E-1,7.987932545E-1
1.804531583E0,4.227515459E-1,-3.967024982E-1,6.051697731E-1,8.380466550E-1
1.806976583E0,4.019821286E-1,-4.003677070E-1,6.540389657E-1,8.658238280E-1
1.809420802E0,3.732714951E-1,-3.954807818E-1,6.974104047E-1,8.843743158E-1
1.811865802E0,3.360087574E-1,-3.869286776E-1,7.328405380E-1,8.942432223E-1
1.814311583E0,2.963025272E-1,-3.832634985E-1,7.621620297E-1,9.030930498E-1
1.816756583E0,2.578180730E-1,-3.948699236E-1,7.829314470E-1,9.139880011E-1
1.819200802E0,2.217770666E-1,-4.205262363E-1,7.988139391E-1,9.295865167E-1
1.821645802E0,1.918446869E-1,-4.602324367E-1,8.067551851E-1,9.484050866E-1
1.824091583E0,1.661883742E-1,-5.097124577E-1,8.055334091E-1,9.676308379E-1
1.826536583E0,1.472515613E-1,-5.695772171E-1,7.994247675E-1,9.925629388E-1
1.828980802E0,1.332016736E-1,-6.324962378E-1,7.914835215E-1,1.021880786E0
1.831425802E0,1.197626442E-1,-6.844197512E-1,7.829314470E-1,1.046783233E0
1.833871636E0,1.069344804E-1,-7.100760937E-1,7.743793130E-1,1.056080661E0
1.836316636E0,9.654978663E-2,-7.015239596E-1,7.670489550E-1,1.043945318E0
1.838760854E0,9.227373451E-2,-6.557091475E-1,7.627729177E-1,1.010094774E0
1.841205854E0,9.532805532E-2,-5.640794039E-1,7.621620297E-1,9.529763751E-1
1.843651636E0,1.063236222E-1,-4.248022735E-1,7.670489550E-1,8.832472947E-1
1.846096636E0,1.203735098E-1,-2.366559356E-1,7.774336338E-1,8.215222874E-1
1.848540854E0,1.368668675E-1,3.595738672E-4,7.908726931E-1,8.026283607E-1
1.850985854E0,1.625231802E-1,2.587553263E-1,8.073660135E-1,8.632542979E-1
1.853431636E0,2.089488953E-1,4.969925582E-1,8.263028264E-1,9.866294161E-1
1.855876636E0,2.694244981E-1,7.089626789E-1,8.482939601E-1,1.137901702E0
1.858320854E0,3.317326903E-1,9.019958973E-1,8.763937354E-1,1.300657202E0
1.860765854E0,3.897648454E-1,1.075481534E0,9.093804359E-1,1.461352094E0
1.863211688E0,4.349688292E-1,1.225143313E0,9.466431737E-1,1.608200025E0
1.865656688E0,4.661229253E-1,1.344262004E0,9.906254411E-1,1.733680963E0
1.868100906E0,4.783402383E-1,1.446276426E0,1.036440134E0,1.842480132E0
1.870545906E0,4.685663879E-1,1.531186581E0,1.082255006E0,1.932708644E0
1.872991688E0,4.471861124E-1,1.593494773E0,1.129902482E0,2.003966225E0
1.875436688E0,4.172537625E-1,1.628314018E0,1.173273921E0,2.049897299E0
1.877880906E0,3.763258159E-1,1.646029115E0,1.214201808E0,2.079740127E0
1.880325906E0,3.152393401E-1,1.669852853E0,1.249021053E0,2.108989802E0
1.882771740E0,2.474333644E-1,1.680237532E0,1.277120829E0,2.124960951E0
1.885216740E0,1.930664182E-1,1.656413794E0,1.300333738E0,2.114674710E0
1.887660906E0,1.435863823E-1,1.605712056E0,1.319270492E0,2.083123349E0
1.890105958E0,9.532805532E-2,1.550123334E0,1.332709551E0,2.046481013E0
1.892551740E0,5.562184751E-2,1.485371709E0,1.343094230E0,2.003328484E0
1.894996740E0,2.080255747E-2,1.410235405E0,1.354089856E0,1.955186943E0
1.897440958E0,-9.740677662E-3,1.333266377E0,1.363252759E0,1.906869738E0
1.899885958E0,-4.211650789E-2,1.262406111E0,1.374248385E0,1.866548047E0
1.902331740E0,-8.121185005E-2,1.211704373E0,1.386465669E0,1.843125037E0
1.904776740E0,-1.282484233E-1,1.176885009E0,1.393796086E0,1.828708154E0
1.907220958E0,-1.826153845E-1,1.157337427E0,1.403569818E0,1.828328890E0
1.909665958E0,-2.449235916E-1,1.153061271E0,1.410900235E0,1.838525859E0
1.912111792E0,-3.139513135E-1,1.156726480E0,1.417619705E0,1.856401682E0
1.914556792E0,-3.854224980E-1,1.167722106E0,1.423728466E0,1.881257070E0
1.917001011E0,-4.556719363E-1,1.178717613E0,1.423117518E0,1.903227679E0
1.919446011E0,-5.198127031E-1,1.186048031E0,1.420674086E0,1.922298113E0
1.921891792E0,-5.778448582E-1,1.190934896E0,1.415176272E0,1.937770495E0
1.924336792E0,-6.248814464E-1,1.184826255E0,1.404791594E0,1.941064012E0
1.926781011E0,-6.572573185E-1,1.161002517E0,1.393796086E0,1.929399274E0
1.929226011E0,-6.798592806E-1,1.131070137E0,1.384022236E0,1.912340411E0
1.931671792E0,-7.012395263E-1,1.101137877E0,1.375470042E0,1.896354221E0
1.934116792E0,-7.213981152E-1,1.069372892E0,1.368139744E0,1.880366981E0
1.936561011E0,-7.354480028E-1,1.025390625E0,1.364474535E0,1.858521040E0
1.939006063E0,-7.537739277E-1,9.752997160E-1,1.361420155E0,1.836531924E0
1.941451844E0,-7.800410986E-1,9.239870310E-1,1.363863707E0,1.822728822E0
1.943896844E0,-8.215798736E-1,8.848916888E-1,1.366917968E0,1.823867188E0
1.946341063E0,-8.857206702E-1,8.775613308E-1,1.368750572E0,1.851511038E0
1.948786063E0,-9.657439590E-1,8.873351812E-1,1.368139744E0,1.895212779E0
1.951231844E0,-1.040880322E0,8.861134052E-1,1.362031102E0,1.929704002E0
1.953676844E0,-1.097079873E0,8.531267643E-1,1.350424647E0,1.937796752E0
1.956121063E0,-1.125179648E0,7.828773260E-1,1.334542155E0,1.913094068E0
1.958566063E0,-1.120292783E0,6.625369191E-1,1.315605402E0,1.850629261E0
1.961011844E0,-1.081808329E0,4.976034462E-1,1.297890306E0,1.761373809E0
1.963456896E0,-1.021943569E0,3.076245189E-1,1.282618642E0,1.668565876E0
1.965901063E0,-9.633005261E-1,1.225325167E-1,1.274677396E0,1.602424596E0
1.968346115E0,-9.211508632E-1,-3.934663162E-2,1.270401359E0,1.569709107E0
1.970791896E0,-9.077118039E-1,-1.731260121E-1,1.271623135E0,1.571921986E0
1.973236896E0,-9.144313335E-1,-2.934663594E-1,1.272233963E0,1.594015817E0
1.975681115E0,-9.290921092E-1,-4.321326613E-1,1.269790530E0,1.631661354E0
1.978126115E0,-9.419202209E-1,-6.068399549E-1,1.256351471E0,1.683415413E0
1.980571896E0,-9.553592801E-1,-8.200317025E-1,1.228251696E0,1.758910337E0
1.983016896E0,-9.626896381E-1,-1.069264531E0,1.179382563E0,1.860387381E0
1.985461115E0,-9.639113545E-1,-1.346597075E0,1.112187386E0,1.994845749E0
1.987906115E0,-9.620788097E-1,-1.636147022E0,1.019946814E0,2.154730660E0
1.990351948E0,-9.681874514E-1,-1.901873112E0,9.051043987E-1,2.318129040E0
1.992796948E0,-9.773504138E-1,-2.127282143E0,7.688815594E-1,2.464086443E0
1.995241115E0,-9.840699434E-1,-2.300767899E0,6.125001907E-1,2.576253687E0
1.997686167E0,-9.840699434E-1,-2.419886351E0,4.408471584E-1,2.649262128E0
2.000131948E0,-9.767395258E-1,-2.463257790E0,2.533116937E-1,2.661921459E0
2.002576948E0,-9.602462053E-1,-2.421108246E0,5.966758355E-2,2.605263544E0
2.005021167E0,-9.248160124E-1,-2.302600384E0,-1.339765191E-1,2.484995552E0
2.007466167E0,-8.533448577E-1,-2.136445284E0,-3.227337301E-1,2.323091250E0
2.009911948E0,-7.470543981E-1,-1.926918626E0,-5.011062026E-1,2.126549574E0
2.012356948E0,-6.218271255E-1,-1.670355439E0,-6.580984592E-1,1.899960486E0
2.014801167E0,-4.813282490E-1,-1.371031761E0,-7.918778062E-1,1.654833959E0
2.017246167E0,-3.371641636E-1,-1.035056114E0,-8.981682658E-1,1.411285608E0
2.019692000E0,-1.905566305E-1,-6.789219975E-1,-9.788024426E-1,1.206358624E0
2.022137000E0,-4.639256001E-2,-3.197335601E-1,-1.035612941E0,1.084839150E0
2.024581219E0,9.838237613E-2,2.540502883E-2,-1.072875738E0,1.077676601E0
2.027026219E0,2.321617603E-1,3.491633236E-1,-1.095477700E0,1.172981458E0
2.029472000E0,3.543346822E-1,6.442109942E-1,-1.109527588E0,1.331019286E0
2.031917000E0,4.630686045E-1,8.995524645E-1,-1.118079662E0,1.507889021E0
2.034361219E0,5.534765720E-1,1.114576817E0,-1.123577476E0,1.676616873E0
2.036806219E0,6.304455400E-1,1.285619020E0,-1.129686117E0,1.823860896E0
2.039252000E0,6.909211278E-1,1.417565703E0,-1.141903400E0,1.946999719E0
2.041697052E0,7.361251116E-1,1.512249827E0,-1.157175064E0,2.041527332E0
2.044141219E0,7.709444165E-1,1.569671035E0,-1.177333593E0,2.108159586E0
2.046586219E0,7.941572666E-1,1.598381758E0,-1.202378988E0,2.152028169E0
2.049032052E0,8.063746095E-1,1.605101228E0,-1.231700540E0,2.177998205E0
2.051477052E0,8.130940795E-1,1.595327377E0,-1.262243748E0,2.190764867E0
2.053921271E0,8.137049675E-1,1.572114468E0,-1.292786956E0,2.192021393E0
2.056366271E0,8.075963259E-1,1.541571259E0,-1.323941112E0,2.186658144E0
2.058812052E0,7.990441918E-1,1.504919410E0,-1.357538700E0,2.178569570E0
2.061257052E0,7.880486250E-1,1.462158918E0,-1.390525341E0,2.166215608E0
2.063701271E0,7.715553045E-1,1.414511442E0,-1.423512101E0,2.150006258E0
2.066146271E0,7.575054169E-1,1.355868459E0,-1.455276966E0,2.128385487E0
2.068592104E0,7.434555292E-1,1.281342864E0,-1.488874555E0,2.100312619E0
2.071037104E0,7.287947536E-1,1.198265314E0,-1.525526404E0,2.072248143E0
2.073481271E0,7.068036199E-1,1.112744212E0,-1.562178373E0,2.044057805E0
2.075926271E0,6.768712401E-1,1.029055834E0,-1.593943357E0,2.014389737E0
2.078372104E0,6.414411068E-1,9.496433735E-1,-1.620210528E0,1.984528001E0
2.080817104E0,6.041783690E-1,8.610680103E-1,-1.639147282E0,1.947632776E0
2.083261323E0,5.669156313E-1,7.731034756E-1,-1.651364565E0,1.909473028E0
2.085706323E0,5.272094011E-1,6.826955080E-1,-1.658084154E0,1.869028082E0
2.088152104E0,4.868923426E-1,5.880114436E-1,-1.665414453E0,1.832055378E0
2.090597104E0,4.465752542E-1,4.829426706E-1,-1.670301437E0,1.795151796E0
2.093041323E0,3.995386660E-1,3.687109947E-1,-1.678242683E0,1.764108117E0
2.095486323E0,3.445608616E-1,2.465380579E-1,-1.688627362E0,1.740966849E0
2.097932156E0,2.755331397E-1,1.127586812E-1,-1.700233817E0,1.726101985E0
2.100377156E0,2.016185224E-1,-4.117922857E-2,-1.713672757E0,1.725983799E0
2.102821375E0,1.325908154E-1,-2.342124730E-1,-1.726500988E0,1.747352703E0
2.105266375E0,7.150433213E-2,-4.590107203E-1,-1.733831286E0,1.794985972E0
2.107712156E0,1.469391119E-2,-7.045782804E-1,-1.733831286E0,1.871581522E0
2.110157156E0,-4.272737354E-2,-9.513676167E-1,-1.720392346E0,1.966386482E0
2.112601375E0,-1.032029763E-1,-1.178609371E0,-1.691070795E0,2.063853517E0
2.115046375E0,-1.746741384E-1,-1.357592702E0,-1.648921132E0,2.143014209E0
2.117492156E0,-2.485887855E-1,-1.484041691E0,-1.595775962E0,2.193325567E0
2.119937156E0,-3.053992093E-1,-1.579336524E0,-1.537743807E0,2.225360319E0
2.122381375E0,-3.286120594E-1,-1.649586082E0,-1.474824667E0,2.237013170E0
2.124826375E0,-3.334989846E-1,-1.670355439E0,-1.411294818E0,2.212026656E0
2.127272208E0,-3.212817013E-1,-1.646531701E0,-1.347154021E0,2.151537248E0
2.129717208E0,-2.974579632E-1,-1.577504039E0,-1.287289262E0,2.057696255E0
2.132161427E0,-2.644712627E-1,-1.468159199E0,-1.228646159E0,1.932616844E0
2.134606427E0,-2.308737040E-1,-1.325827718E0,-1.176722765E0,1.787679577E0
2.137052208E0,-1.948326826E-1,-1.166392088E0,-1.126631856E0,1.633318590E0
2.139497208E0,-1.545156091E-1,-1.008788943E0,-1.084482193E0,1.489171526E0
2.141941427E0,-1.111442223E-1,-8.689008951E-1,-1.044165015E0,1.362946214E0
2.144386427E0,-6.532936543E-2,-7.601670027E-1,-1.005069733E0,1.261858536E0
2.146832208E0,-1.523846015E-2,-6.856414676E-1,-9.696394205E-1,1.187660321E0
2.149277261E0,3.424158320E-2,-6.416592598E-1,-9.299332500E-1,1.130342842E0
2.151721427E0,7.578038424E-2,-6.123377085E-1,-8.896161914E-1,1.082643572E0
2.154166427E0,1.044910252E-1,-5.848488212E-1,-8.474665284E-1,1.034971514E0
2.156612261E0,1.240386888E-1,-5.598033667E-1,-8.047059774E-1,9.880876053E-1
2.159057261E0,1.386994570E-1,-5.390339494E-1,-7.631671429E-1,9.445735683E-1
2.161501479E0,1.496950239E-1,-5.145993829E-1,-7.246826887E-1,9.013246498E-1
2.163946479E0,1.625231802E-1,-4.895539582E-1,-6.904742718E-1,8.618767789E-1
2.166392261E0,1.826817244E-1,-4.700062871E-1,-6.617636085E-1,8.319913436E-1
2.168837261E0,2.083380371E-1,-4.583998322E-1,-6.385507584E-1,8.131926063E-1
2.171281479E0,2.437681854E-1,-4.565672576E-1,-6.177813411E-1,8.059344727E-1
2.173726479E0,2.785874605E-1,-4.553455114E-1,-5.964010954E-1,8.004028826E-1
2.176172261E0,3.115741611E-1,-4.492368698E-1,-5.737991333E-1,7.925513664E-1
2.178617313E0,3.433391154E-1,-4.327435195E-1,-5.530297160E-1,7.816588570E-1
2.181061479E0,3.714388907E-1,-4.113632739E-1,-5.322602987E-1,7.684319216E-1
2.183506531E0,3.964843452E-1,-3.881503940E-1,-5.127126575E-1,7.554699421E-1
2.185952313E0,4.184754789E-1,-3.600506186E-1,-4.925541282E-1,7.398430534E-1
2.188397313E0,4.416883588E-1,-3.331725895E-1,-4.748390615E-1,7.290848476E-1
2.190841531E0,4.642903507E-1,-3.117923141E-1,-4.559022486E-1,7.215447575E-1
2.193286531E0,4.850597382E-1,-2.983532846E-1,-4.394088984E-1,7.192897969E-1
2.195732313E0,5.052182674E-1,-2.922446430E-1,-4.241372943E-1,7.214879580E-1
2.198177313E0,5.272094011E-1,-2.977424264E-1,-4.082548022E-1,7.302549477E-1
2.200621531E0,5.461462140E-1,-3.117923141E-1,-3.929831684E-1,7.415698920E-1
2.203066531E0,5.608069897E-1,-3.276748061E-1,-3.771007061E-1,7.510527284E-1
2.205512365E0,5.718025565E-1,-3.472224772E-1,-3.593856096E-1,7.593942512E-1
2.207957365E0,5.748568773E-1,-3.661592603E-1,-3.392270803E-1,7.613199363E-1
2.210401583E0,5.724133849E-1,-3.893721402E-1,-3.196794093E-1,7.625369968E-1
2.212846583E0,5.669156313E-1,-4.168610573E-1,-3.001317382E-1,7.650134210E-1
2.215292365E0,5.595852137E-1,-4.467934072E-1,-2.799732089E-1,7.688595176E-1
2.217737365E0,5.430918932E-1,-4.901648164E-1,-2.592038214E-1,7.761423663E-1
2.220181583E0,5.412592888E-1,-5.414774418E-1,-2.378235310E-1,8.016978668E-1
2.222626583E0,5.186573267E-1,-6.043964624E-1,-2.164432555E-1,8.253170235E-1
2.225072365E0,5.137704015E-1,-6.605960131E-1,-1.926195323E-1,8.587487422E-1
2.227517417E0,4.875032008E-1,-7.345106602E-1,-1.694066823E-1,8.976992284E-1
2.229961583E0,4.722315669E-1,-7.974297404E-1,-1.461938173E-1,9.382267721E-1
2.232406583E0,4.398557544E-1,-8.713443875E-1,-1.211483628E-1,9.835603958E-1
2.234852417E0,4.129776955E-1,-9.379286170E-1,-9.671378136E-2,1.029375647E0
2.237297417E0,3.793801367E-1,-1.006345510E0,-7.166834176E-2,1.077866840E0
2.239741636E0,3.366196156E-1,-1.072929740E0,-4.784460738E-2,1.125513260E0
2.242186636E0,3.030220568E-1,-1.134016156E0,-2.279915474E-2,1.174025047E0
2.244632417E0,2.529311478E-1,-1.196324348E0,1.635434572E-3,1.222770946E0
2.247077417E0,2.236096561E-1,-1.247026205E0,2.729175240E-2,1.267209720E0
2.249521636E0,1.790165305E-1,-1.301393151E0,4.989374802E-2,1.314595161E0
2.251966636E0,1.576362699E-1,-1.337434173E0,7.249574363E-2,1.348641907E0
2.254412417E0,1.258713007E-1,-1.372864246E0,9.387600422E-2,1.381814940E0
2.256857469E0,1.075453460E-1,-1.385692477E0,1.152562648E-1,1.394630291E0
2.259301636E0,9.471718967E-2,-1.389357686E0,1.372474134E-1,1.399329475E0
2.261746636E0,7.822383940E-2,-1.366755605E0,1.567950845E-1,1.377942143E0
2.264192469E0,8.005643636E-2,-1.318497300E0,1.769536138E-1,1.332725307E0
2.266637469E0,6.722828001E-2,-1.253134847E0,1.958904266E-1,1.270133711E0
2.269081688E0,8.188903332E-2,-1.159672499E0,2.148272246E-1,1.182242299E0
2.271526688E0,8.372162282E-2,-1.061323285E0,2.355966270E-1,1.090377089E0
2.273972469E0,1.112105399E-1,-9.354851842E-1,2.588094771E-1,9.769762840E-1
2.276417469E0,1.325908154E-1,-8.041492701E-1,2.832440734E-1,8.628230282E-1
2.278861688E0,1.680209637E-1,-6.502113342E-1,3.113438487E-1,7.402302449E-1
2.281306688E0,2.046728432E-1,-4.901648164E-1,3.424979448E-1,6.320263936E-1
2.283752521E0,2.376595438E-1,-3.203444183E-1,3.779281080E-1,5.494836302E-1
2.286197521E0,2.816417813E-1,-1.346415281E-1,4.170234501E-1,5.209212916E-1
2.288641688E0,3.005785942E-1,5.350480229E-2,4.555079043E-1,5.483591032E-1
2.291086688E0,3.372304738E-1,2.471489161E-1,4.970467091E-1,6.495093611E-1
2.293532521E0,3.512803614E-1,4.133041203E-1,5.361421108E-1,7.626706702E-1
2.295977521E0,3.891539872E-1,5.641877055E-1,5.758482814E-1,8.951814542E-1
2.298421740E0,4.050364494E-1,6.790302992E-1,6.173871160E-1,1.003146811E0
2.300866740E0,4.300819039E-1,7.840990424E-1,6.601476073E-1,1.111564940E0
2.303312521E0,4.477970004E-1,8.586245179E-1,7.059624791E-1,1.198391104E0
2.305757521E0,4.532947838E-1,9.184892774E-1,7.523881793E-1,1.270899951E0
2.308201740E0,4.679555297E-1,9.740779400E-1,8.018682599E-1,1.345660773E0
2.310646740E0,4.490187168E-1,1.031499267E0,8.482939601E-1,1.408975226E0
2.313092573E0,4.441317916E-1,1.103581309E0,8.941088319E-1,1.488144938E0
2.315537573E0,4.105342329E-1,1.171387315E0,9.362584949E-1,1.554756112E0
2.317981792E0,3.964843452E-1,1.242247581E0,9.790189862E-1,1.630600216E0
2.320426792E0,3.732714951E-1,1.305777550E0,1.018114209E0,1.697334134E0
2.322872573E0,3.488368988E-1,1.353424907E0,1.056598663E0,1.752097856E0
2.325317573E0,3.225697279E-1,1.389465928E0,1.092639685E0,1.796810584E0
2.327761792E0,2.920264900E-1,1.423674345E0,1.125015616E0,1.837876016E0
2.330206792E0,2.523202896E-1,1.452995896E0,1.154947877E0,1.873170361E0
2.332652573E0,2.175009996E-1,1.463380575E0,1.178160787E0,1.891256786E0
2.335097573E0,1.839034408E-1,1.446276426E0,1.201373696E0,1.889135976E0
2.337541792E0,1.521384865E-1,1.415122271E0,1.221532226E0,1.875595409E0
2.339986792E0,1.136539951E-1,1.382746458E0,1.236803770E0,1.858652351E0
2.342432625E0,7.211519778E-2,1.344262004E0,1.249021053E0,1.836380823E0
2.344877625E0,2.752206847E-2,1.302723169E0,1.260016680E0,1.812591281E0
2.347321844E0,-2.195797116E-2,1.256297469E0,1.267957926E0,1.785072207E0
2.349766844E0,-7.693579793E-2,1.217202067E0,1.269790530E0,1.760644195E0
2.352212625E0,-1.355787963E-1,1.181161046E0,1.269179583E0,1.739062920E0
2.354657625E0,-1.960544139E-1,1.152450442E0,1.265514493E0,1.722819285E0
2.357101844E0,-2.534756958E-1,1.125572443E0,1.257573247E0,1.706649854E0
2.359546844E0,-3.047883511E-1,1.104802966E0,1.249632001E0,1.695601861E0
2.361992625E0,-3.506031930E-1,1.091974854E0,1.239858150E0,1.688958234E0
2.364437677E0,-3.903093934E-1,1.089531422E0,1.232527733E0,1.690723145E0
2.366881844E0,-4.214635193E-1,1.096861720E0,1.228862524E0,1.700247110E0
2.369326896E0,-4.446763694E-1,1.115798593E0,1.227029920E0,1.717074837E0
2.371772677E0,-4.605588615E-1,1.141454935E0,1.229473472E0,1.739723786E0
2.374217677E0,-4.715544283E-1,1.172608972E0,1.236803770E0,1.768349215E0
2.376661896E0,-4.739978611E-1,1.204984784E0,1.248410225E0,1.798663502E0
2.379106896E0,-4.746087492E-1,1.236749768E0,1.263070941E0,1.830341951E0
2.381552677E0,-4.721652865E-1,1.259351730E0,1.282007813E0,1.858077198E0
2.383997677E0,-4.666675031E-1,1.265460372E0,1.303388119E0,1.875630321E0
2.386441896E0,-4.581153989E-1,1.243469238E0,1.327822685E0,1.875952704E0
2.388886896E0,-4.452872276E-1,1.185437202E0,1.351646423E0,1.852158236E0
2.391332729E0,-4.300156236E-1,1.076092362E0,1.373026609E0,1.796688698E0
2.393777729E0,-4.159657359E-1,9.129914641E-1,1.393185139E0,1.716841792E0
2.396221948E0,-4.110788107E-1,7.010214329E-1,1.408456802E0,1.626089605E0
2.398666948E0,-4.263504148E-1,4.597298205E-1,1.414565444E0,1.547294923E0
2.401112729E0,-4.764413238E-1,2.202708870E-1,1.408456802E0,1.503085547E0
2.403557729E0,-5.662384629E-1,-2.512880601E-4,1.389519930E0,1.500463827E0
2.406001948E0,-6.829136014E-1,-2.000040561E-1,1.351035476E0,1.526980506E0
2.408446948E0,-8.087517619E-1,-3.838743567E-1,1.293614268E0,1.573174119E0
2.410892729E0,-9.260377884E-1,-5.494186878E-1,1.217256188E0,1.625152149E0
2.413337729E0,-1.023776174E0,-6.819763184E-1,1.127459049E0,1.668644138E0
2.415781948E0,-1.096469045E0,-7.595561147E-1,1.029109836E0,1.684706773E0
2.418226948E0,-1.141062140E0,-7.705516815E-1,9.289280772E-1,1.660927474E0
2.420672781E0,-1.154501200E0,-7.100760937E-1,8.360766768E-1,1.592515397E0
2.423117781E0,-1.132510066E0,-5.866814256E-1,7.523881793E-1,1.480831563E0
2.425562000E0,-1.073256135E0,-4.168610573E-1,6.815279126E-1,1.337958209E0
2.428007000E0,-9.767395258E-1,-2.158865333E-1,6.247174740E-1,1.179363820E0
2.430452781E0,-8.527340293E-1,1.318773441E-2,5.844004154E-1,1.033853513E0
2.432897781E0,-7.165111899E-1,2.691400349E-1,5.593549609E-1,9.479992700E-1
2.435342000E0,-5.857861042E-1,5.599116683E-1,5.556897521E-1,9.825668103E-1
2.437787000E0,-4.672783613E-1,8.708418012E-1,5.715722442E-1,1.141669541E0
2.440232781E0,-3.615987599E-1,1.175052404E0,6.057806611E-1,1.370573612E0
2.442677833E0,-2.742451131E-1,1.446276426E0,6.577041745E-1,1.612296705E0
2.445122000E0,-2.009413242E-1,1.660689950E0,7.291753292E-1,1.824819220E0
2.447567000E0,-1.380222589E-1,1.796301842E0,8.091986179E-1,1.974981735E0
2.450012833E0,-8.365530521E-2,1.834175467E0,8.953305483E-1,2.042746839E0
2.452457833E0,-4.211650789E-2,1.771867275E0,9.790189862E-1,2.024787795E0
2.454902052E0,-1.829278469E-2,1.620983720E0,1.052933574E0,1.933026631E0
2.457347052E0,-1.646018960E-2,1.390076876E0,1.110354781E0,1.779177450E0
2.459792833E0,-3.906218335E-2,1.090753078E0,1.147006750E0,1.583316967E0
2.462237833E0,-8.548790216E-2,7.480580211E-1,1.151893616E0,1.376138760E0
2.464682052E0,-1.545156091E-1,3.827608824E-1,1.128680706E0,1.201790790E0
2.467127052E0,-2.382040769E-1,1.624205895E-2,1.073702931E0,1.099928621E0
2.469572886E0,-3.255577385E-1,-3.343943059E-1,9.857385159E-1,1.090636426E0
2.472017886E0,-4.092462063E-1,-6.502113342E-1,8.684524894E-1,1.159511519E0
2.474462052E0,-4.837717116E-1,-9.177700877E-1,7.297862172E-1,1.268434045E0
2.476907052E0,-5.454690456E-1,-1.126685858E0,5.740156770E-1,1.377117097E0
2.479352886E0,-5.876187086E-1,-1.269017339E0,4.103039205E-1,1.457412111E0
2.481797886E0,-6.102207303E-1,-1.343542814E0,2.478139251E-1,1.496291541E0
2.484242104E0,-6.102207303E-1,-1.350873232E0,9.082168341E-2,1.485084646E0
2.486687104E0,-5.888404250E-1,-1.292841077E0,-5.822930858E-2,1.421816355E0
2.489132886E0,-5.497450829E-1,-1.179220200E0,-1.920086741E-1,1.315160548E0
2.491577886E0,-4.904912114E-1,-1.019173622E0,-3.135707676E-1,1.173721912E0
2.494022104E0,-4.159657359E-1,-8.175882697E-1,-4.216938317E-1,1.009605745E0
2.496467104E0,-3.347207308E-1,-5.927900672E-1,-5.157669783E-1,8.540805625E-1
2.498912938E0,-2.455344498E-1,-3.582180440E-1,-5.921250582E-1,7.343156117E-1
2.501357938E0,-1.502395570E-1,-1.273111552E-1,-6.544332504E-1,6.834200275E-1
2.503802156E0,-5.555552989E-2,9.198927879E-2,-7.045241594E-1,7.126729513E-1
2.506247156E0,3.118725866E-2,2.905203104E-1,-7.405651808E-1,7.961227813E-1
2.508692938E0,1.057127565E-1,4.695036709E-1,-7.656106353E-1,9.043055506E-1
2.511137938E0,1.637449116E-1,6.179438233E-1,-7.802714109E-1,1.008707311E0
2.513582156E0,2.113923579E-1,7.321755290E-1,-7.863800526E-1,1.095062245E0
2.516027156E0,2.425464541E-1,8.128096461E-1,-7.869908810E-1,1.157083813E0
2.518472938E0,2.608723938E-1,8.610680103E-1,-7.814931273E-1,1.191731527E0
2.520917938E0,2.700353563E-1,8.781722188E-1,-7.717192769E-1,1.199856734E0
2.523362156E0,2.712570727E-1,8.683983684E-1,-7.607237101E-1,1.185915970E0
2.525807156E0,2.657592893E-1,8.366333842E-1,-7.491172552E-1,1.154019099E0
2.528252990E0,2.572071850E-1,7.810447216E-1,-7.393434644E-1,1.105809727E0
2.530697990E0,2.480442226E-1,7.077409625E-1,-7.301805019E-1,1.046702810E0
2.533142208E0,2.407138646E-1,6.148895025E-1,-7.210174799E-1,9.777006041E-1
2.535587208E0,2.327726185E-1,5.116533637E-1,-7.136871219E-1,9.084721044E-1
2.538032990E0,2.266639769E-1,3.937564492E-1,-7.057458758E-1,8.393437562E-1
2.540477990E0,2.175009996E-1,2.709726393E-1,-6.971938014E-1,7.789814201E-1
2.542922208E0,2.065054476E-1,1.512431651E-1,-6.904742718E-1,7.363923648E-1
2.545367208E0,1.900120974E-1,4.312010109E-2,-6.825330257E-1,7.097994586E-1
2.547812990E0,1.674101055E-1,-5.339651927E-2,-6.770352721E-1,6.994670052E-1
2.550258042E0,1.435863823E-1,-1.401393116E-1,-6.739809513E-1,7.032114892E-1
2.552702208E0,1.203735098E-1,-2.213843167E-1,-6.721483469E-1,7.178329874E-1
2.555147208E0,1.002149731E-1,-2.934663594E-1,-6.800895929E-1,7.474539446E-1
2.557593042E0,8.372162282E-2,-3.643266857E-1,-6.910851598E-1,7.857111060E-1
2.560038042E0,7.394778728E-2,-4.315218031E-1,-7.094110847E-1,8.336326702E-1
2.562482261E0,6.661741436E-2,-4.974951744E-1,-7.338456511E-1,8.890831053E-1
2.564927261E0,5.256752297E-2,-5.475860834E-1,-7.662215233E-1,9.432440225E-1
2.567373042E0,3.485244513E-2,-5.927900672E-1,-8.047059774E-1,1.000083230E0
2.569818042E0,1.896996424E-2,-6.477679014E-1,-8.511316776E-1,1.069760836E0
2.572262261E0,4.920075648E-3,-7.198499441E-1,-9.036660790E-1,1.155344335E0
2.574707261E0,-6.686354056E-3,-8.188099861E-1,-9.635307789E-1,1.264470665E0
2.577153042E0,-1.340586599E-2,-9.385395050E-1,-1.025228262E0,1.390010471E0
2.579598094E0,-1.584932581E-2,-1.072929740E0,-1.088758230E0,1.528667365E0
2.582042261E0,-1.829278469E-2,-1.205487370E0,-1.151677251E0,1.667301687E0
2.584487313E0,-2.379056811E-2,-1.323995113E0,-1.210320234E0,1.793991115E0
2.586933094E0,-2.989921346E-2,-1.418068290E0,-1.263465524E0,1.899514877E0
2.589378094E0,-3.539699689E-2,-1.482819915E0,-1.312334657E0,1.980462092E0
2.591822313E0,-3.478613123E-2,-1.520082712E0,-1.352651715E0,2.035074492E0
2.594267313E0,-2.623402700E-2,-1.530467391E0,-1.387471080E0,2.065936750E0
2.596713094E0,-7.297218777E-3,-1.517639279E0,-1.413738251E0,2.074111394E0
2.599158094E0,2.507860959E-2,-1.489539504E0,-1.433285832E0,2.067284487E0
2.601602313E0,6.661741436E-2,-1.448611498E0,-1.443059683E0,2.045808984E0
2.604047313E0,1.105996743E-1,-1.387525082E0,-1.444892287E0,2.006283096E0
2.606493146E0,1.576362699E-1,-1.309334397E0,-1.438172817E0,1.951293625E0
2.608938146E0,2.052837163E-1,-1.220148087E0,-1.422901154E0,1.885616729E0
2.611382365E0,2.523202896E-1,-1.130351067E0,-1.399077415E0,1.816253473E0
2.613827365E0,2.969134152E-1,-1.044219136E0,-1.370977640E0,1.748751232E0
2.616273146E0,3.463934362E-1,-9.758022428E-1,-1.335547566E0,1.689930688E0
2.618718146E0,3.952626288E-1,-9.232678413E-1,-1.295841336E0,1.639469677E0
2.621162365E0,4.435209334E-1,-8.878377080E-1,-1.254302502E0,1.599450337E0
2.623607365E0,4.881140590E-1,-8.646248579E-1,-1.211542010E0,1.566418055E0
2.626053146E0,5.235441923E-1,-8.499640822E-1,-1.166948915E0,1.535678102E0
2.628498146E0,5.528657436E-1,-8.359141946E-1,-1.122355700E0,1.504691127E0
2.630942365E0,5.718025565E-1,-8.261404037E-1,-1.080206037E0,1.475232596E0
2.633387365E0,5.821872354E-1,-8.163665533E-1,-1.040499926E0,1.445003952E0
2.635833198E0,5.852415562E-1,-8.078144193E-1,-1.003237128E0,1.414763779E0
2.638278198E0,5.809655190E-1,-7.962080240E-1,-9.739155173E-1,1.385633280E0
2.640722417E0,5.730242729E-1,-7.846015692E-1,-9.452048540E-1,1.355495723E0
2.643167417E0,5.632504225E-1,-7.748277187E-1,-9.207702875E-1,1.328693702E0
2.645613198E0,5.546982884E-1,-7.668864727E-1,-9.000008702E-1,1.306065320E0
2.648058198E0,5.455353260E-1,-7.613887191E-1,-8.786206245E-1,1.284249110E0
2.650502417E0,5.400375724E-1,-7.607778311E-1,-8.541859984E-1,1.264933677E0
2.652947417E0,5.382049680E-1,-7.668864727E-1,-8.266971111E-1,1.249482918E0
2.655393198E0,5.461462140E-1,-7.864341736E-1,-7.943212986E-1,1.244066205E0
2.657838198E0,5.565308928E-1,-8.139230609E-1,-7.558367848E-1,1.242371373E0
2.660282417E0,5.650830269E-1,-8.383576870E-1,-7.142980099E-1,1.237895022E0
2.662727417E0,5.705807805E-1,-8.530184031E-1,-6.684831381E-1,1.224774481E0
2.665173250E0,5.693590641E-1,-8.499640822E-1,-6.226682663E-1,1.197632855E0
2.667618250E0,5.632504225E-1,-8.346924782E-1,-5.774642825E-1,1.160787478E0
2.670062469E0,5.510331392E-1,-8.084253073E-1,-5.353146195E-1,1.115235733E0
2.672507469E0,5.345397592E-1,-7.791038156E-1,-4.980519116E-1,1.068078282E0
2.674953250E0,5.198790431E-1,-7.571126819E-1,-4.644543529E-1,1.029180100E0
2.677398250E0,5.070508718E-1,-7.510040402E-1,-4.400197566E-1,1.007335615E0
2.679842469E0,4.917792380E-1,-7.577235103E-1,-4.210829437E-1,9.966456654E-1
2.682287469E0,4.771184921E-1,-7.827689648E-1,-4.064221978E-1,1.002770318E0
2.684733250E0,4.630686045E-1,-8.334707618E-1,-3.990918398E-1,1.033624854E0
2.687178302E0,4.465752542E-1,-9.031093121E-1,-3.960375190E-1,1.082534805E0
2.689622469E0,4.245841205E-1,-9.910738468E-1,-3.917614520E-1,1.147160006E0
2.692067469E0,3.995386660E-1,-1.092477441E0,-3.887071311E-1,1.226471091E0
2.694513302E0,3.714388907E-1,-1.202432990E0,-3.813767433E-1,1.315013371E0
2.696958302E0,3.384522200E-1,-1.305669188E0,-3.722137809E-1,1.399237304E0
2.699402521E0,3.011894524E-1,-1.393022895E0,-3.587747514E-1,1.469675881E0
2.701847521E0,2.657592893E-1,-1.458385348E0,-3.392270803E-1,1.520720499E0
2.704293302E0,2.333834916E-1,-1.498702407E0,-3.154033720E-1,1.549211427E0
2.706738302E0,2.065054476E-1,-1.511530638E0,-2.897470295E-1,1.552843427E0
2.709182521E0,1.894012243E-1,-1.495648146E0,-2.610363960E-1,1.530024902E0
2.711627521E0,1.808491200E-1,-1.451665878E0,-2.323257476E-1,1.481220942E0
2.714073354E0,1.796273887E-1,-1.383859873E0,-2.048368305E-1,1.410422729E0
2.716518354E0,1.839034408E-1,-1.295284510E0,-1.773479134E-1,1.320240402E0
2.718962521E0,1.912338287E-1,-1.191437483E0,-1.523024589E-1,1.216260536E0
2.721407521E0,2.077271640E-1,-1.083314419E0,-1.242026985E-1,1.110021178E0
2.723853354E0,2.278857082E-1,-9.727479219E-1,-9.304860234E-2,1.003408420E0
2.726298354E0,2.486551106E-1,-8.597379327E-1,-5.884017423E-2,8.969062621E-1
2.728742573E0,2.694244981E-1,-7.455062270E-1,-2.218828909E-2,7.930078277E-1
2.731187573E0,2.908047438E-1,-6.318854094E-1,1.935051195E-2,6.958599082E-1
2.733633354E0,3.121850193E-1,-5.164319277E-1,6.394363940E-2,6.068362310E-1
2.736078354E0,3.299000859E-1,-3.973133862E-1,1.091476232E-1,5.278306520E-1
2.738522573E0,3.445608616E-1,-2.720861137E-1,1.586276740E-1,4.668145023E-1
2.740967573E0,3.549455404E-1,-1.401393116E-1,2.087185830E-1,4.349584005E-1
2.743413406E0,3.653302491E-1,-1.002512313E-2,2.600311935E-1,4.485341855E-1
2.745858406E0,3.793801367E-1,1.152021438E-1,3.107329905E-1,5.037418123E-1
2.748302573E0,3.977060914E-1,2.404294163E-1,3.608238995E-1,5.883624103E-1
2.750747625E0,4.172537625E-1,3.681001365E-1,4.103039205E-1,6.913376310E-1
2.753193406E0,4.398557544E-1,5.012686849E-1,4.628382921E-1,8.117651531E-1
2.755638406E0,4.630686045E-1,6.442109942E-1,5.135400891E-1,9.450734155E-1
2.758082625E0,4.875032008E-1,7.969272137E-1,5.672962070E-1,1.092967219E0
2.760527625E0,5.058291554E-1,9.575846195E-1,6.210522652E-1,1.248413935E0
2.762973406E0,5.259876847E-1,1.126183271E0,6.723649502E-1,1.413161856E0
2.765418406E0,5.473679304E-1,1.293560147E0,7.230666876E-1,1.579789524E0
2.767862625E0,5.626395345E-1,1.454217672E0,7.694923878E-1,1.738801547E0
2.770307625E0,5.791329145E-1,1.603879452E0,8.098095059E-1,1.887754132E0
2.772753458E0,5.956262350E-1,1.730328441E0,8.464613557E-1,2.016259892E0
2.775198458E0,6.115087271E-1,1.827455997E0,8.788372278E-1,2.117992733E0
2.777642677E0,6.255586147E-1,1.893429399E0,9.093804359E-1,2.191659473E0
2.780087677E0,6.377758980E-1,1.925805211E0,9.380910993E-1,2.235061234E0
2.782533458E0,6.426628232E-1,1.939244270E0,9.668017030E-1,2.260174634E0
2.784978458E0,6.261695027E-1,1.953904986E0,9.955123663E-1,2.280543315E0
2.787422677E0,5.858524442E-1,1.985059023E0,1.022390246E0,2.308454944E0
2.789867677E0,5.272094011E-1,2.025986910E0,1.046824932E0,2.340601450E0
2.792313458E0,4.612360001E-1,2.066303968E0,1.066983461E0,2.370823579E0
2.794758511E0,3.970952332E-1,2.088295221E0,1.085309386E0,2.386746325E0
2.797202677E0,3.421173990E-1,2.079132318E0,1.098137498E0,2.376076909E0
2.799647677E0,2.956916690E-1,2.032095671E0,1.105467916E0,2.332146155E0
2.802093511E0,2.553746104E-1,1.958791852E0,1.109133124E0,2.265448741E0
2.804538511E0,2.113923579E-1,1.865940452E0,1.109743953E0,2.181273055E0
2.806982729E0,1.582471281E-1,1.767591238E0,1.106078744E0,2.091131542E0
2.809427729E0,9.410632402E-2,1.671685457E0,1.098137498E0,2.002322210E0
2.811873511E0,2.202428877E-2,1.572725415E0,1.086531043E0,1.911674661E0
2.814318511E0,-5.311207473E-2,1.470710993E0,1.070037723E0,1.819558310E0
2.816762729E0,-1.349679381E-1,1.380303025E0,1.053544402E0,1.741668336E0
2.819207729E0,-2.217107266E-1,1.308831811E0,1.034607530E0,1.683035679E0
2.821653563E0,-3.090643883E-1,1.255686641E0,1.015670776E0,1.644340859E0
2.824098563E0,-3.890876770E-1,1.215369463E0,1.001621008E0,1.622269027E0
2.826542729E0,-4.593371153E-1,1.189102292E0,9.887928367E-1,1.613278067E0
2.828987729E0,-5.179801583E-1,1.175052404E0,9.820733070E-1,1.616638357E0
2.831433563E0,-5.619623661E-1,1.167111158E0,9.790189862E-1,1.623708204E0
2.833878563E0,-5.876187086E-1,1.163446069E0,9.839059114E-1,1.633087060E0
2.836322781E0,-6.028903127E-1,1.161613464E0,9.936797619E-1,1.643235235E0
2.838767781E0,-6.065555215E-1,1.162224293E0,1.008951306E0,1.654284633E0
2.841213563E0,-6.022794843E-1,1.160391688E0,1.024833798E0,1.661184445E0
2.843658563E0,-5.955599546E-1,1.150617838E0,1.046213984E0,1.665285792E0
2.846102781E0,-5.833426714E-1,1.126183271E0,1.066983461E0,1.657417008E0
2.848547781E0,-5.717362165E-1,1.079146743E0,1.090807080E0,1.637467581E0
2.850993615E0,-5.650167465E-1,1.005232096E0,1.114630818E0,1.603788437E0
2.853438615E0,-5.705145001E-1,9.111588597E-1,1.136621952E0,1.564482894E0
2.855882781E0,-5.912839174E-1,7.957054377E-1,1.154337049E0,1.521597133E0
2.858327833E0,-6.328226924E-1,6.698673368E-1,1.168997765E0,1.488537061E0
2.860773615E0,-6.963526607E-1,5.409748554E-1,1.173273921E0,1.467696330E0
2.863218615E0,-7.757650614E-1,4.108606577E-1,1.168997765E0,1.461907550E0
2.865662833E0,-8.637295365E-1,2.783029974E-1,1.153115392E0,1.467363751E0
2.868107833E0,-9.547483921E-1,1.494105607E-1,1.125626445E0,1.483544034E0
2.870553615E0,-1.040269494E0,3.334626555E-2,1.088363647E0,1.505924308E0
2.872998615E0,-1.112962365E0,-6.439208239E-2,1.042548776E0,1.526348426E0
2.875442833E0,-1.170994520E0,-1.285328716E-1,9.900145531E-1,1.538790980E0
2.877887833E0,-1.208868146E0,-1.505240053E-1,9.362584949E-1,1.536424303E0
2.880333667E0,-1.230859280E0,-1.199807674E-1,8.867784142E-1,1.521770649E0
2.882778667E0,-1.235746145E0,-3.445971385E-2,8.415744305E-1,1.495494410E0
2.885222886E0,-1.219252825E0,9.870879352E-2,8.018682599E-1,1.462639252E0
2.887667886E0,-1.181990027E0,2.685291767E-1,7.719358802E-1,1.437043265E0
2.890113667E0,-1.120292783E0,4.627841413E-1,7.505556345E-1,1.425678379E0
2.892558667E0,-1.039658546E0,6.698673368E-1,7.365057468E-1,1.439462697E0
2.895002886E0,-9.394767880E-1,8.793939352E-1,7.316188216E-1,1.480275795E0
2.897447886E0,-8.282994032E-1,1.084033608E0,7.365057468E-1,1.550370756E0
2.899893667E0,-7.189546227E-1,1.285619020E0,7.548316717E-1,1.655138323E0
2.902338667E0,-6.132750511E-1,1.466434956E0,7.884292006E-1,1.774305039E0
2.904782886E0,-5.161475539E-1,1.605712056E0,8.360766768E-1,1.882483390E0
2.907227886E0,-4.342916608E-1,1.699785233E0,8.953305483E-1,1.969643591E0
2.909673719E0,-3.713726103E-1,1.737048030E0,9.637473822E-1,2.020906354E0
2.912118719E0,-3.249468803E-1,1.699174404E0,1.037661910E0,2.017306712E0
2.914562938E0,-2.968471050E-1,1.583720922E0,1.109133124E0,1.956135591E0
2.917007938E0,-2.901276052E-1,1.388244271E0,1.173273921E0,1.840643333E0
2.919453719E0,-2.992905676E-1,1.110300779E0,1.223364830E0,1.678977121E0
2.921898719E0,-3.292229474E-1,7.669948339E-1,1.255740643E0,1.507830689E0
2.924342938E0,-3.780921102E-1,3.778739572E-1,1.266125321E0,1.374341916E0
2.926787938E0,-4.483415484E-1,-2.712933533E-2,1.250853658E0,1.329052677E0
2.929233719E0,-5.326408744E-1,-4.309109449E-1,1.208703995E0,1.389372481E0
2.931678771E0,-6.248814464E-1,-8.090361953E-1,1.140287161E0,1.531427829E0
2.934122938E0,-7.116242647E-1,-1.151731253E0,1.046213984E0,1.710981494E0
2.936567938E0,-7.751541734E-1,-1.460217953E0,9.277063608E-1,1.895716106E0
2.939013771E0,-8.130277991E-1,-1.723500609E0,7.890400887E-1,2.062535530E0
2.941458771E0,-8.307428956E-1,-1.921420813E0,6.332696080E-1,2.187012139E0
2.943902990E0,-8.282994032E-1,-2.043593884E0,4.652817547E-1,2.253628846E0
2.946347990E0,-8.099734783E-1,-2.083910942E0,2.917961776E-1,2.254747627E0
2.948793771E0,-7.818737030E-1,-2.033209085E0,1.183106005E-1,2.181573531E0
2.951238771E0,-7.427783608E-1,-1.897597075E0,-4.723374173E-2,2.038338877E0
2.953682990E0,-6.926874518E-1,-1.686237931E0,-2.072802931E-1,1.834715070E0
2.956127990E0,-6.261031628E-1,-1.418679118E0,-3.544987142E-1,1.590699516E0
2.958573771E0,-5.411930084E-1,-1.111414194E0,-4.894998074E-1,1.329564382E0
2.961018823E0,-4.410111904E-1,-7.815472484E-1,-6.086183786E-1,1.084307753E0
2.963462990E0,-3.261685967E-1,-4.357978404E-1,-7.088001966E-1,8.937020924E-1
2.965907990E0,-1.997195929E-1,-9.188099205E-2,-7.900452018E-1,8.200618595E-1
2.968353823E0,-7.143801451E-2,2.477597743E-1,-8.517425656E-1,8.899178017E-1
2.970798823E0,5.440011621E-2,5.721289515E-1,-8.926705122E-1,1.061673939E0
2.973243042E0,1.722970158E-1,8.757287264E-1,-9.134398699E-1,1.277090232E0
2.975688042E0,2.773657441E-1,1.147563577E0,-9.189376831E-1,1.496088361E0
2.978133823E0,3.665519953E-1,1.386411667E0,-9.091638327E-1,1.697962470E0
2.980578823E0,4.398557544E-1,1.583720922E0,-8.871726990E-1,1.867811672E0
2.983023042E0,4.966661930E-1,1.741934896E0,-8.609055281E-1,2.005535543E0
2.985468042E0,5.369832516E-1,1.857999206E0,-8.303623199E-1,2.104759759E0
2.987913875E0,5.614178181E-1,1.934357285E0,-7.998190522E-1,2.167172949E0
2.990358875E0,5.730242729E-1,1.971009254E0,-7.729409933E-1,2.193324435E0
2.992803042E0,5.760785937E-1,1.966122270E0,-7.521716356E-1,2.182490663E0
2.995248094E0,5.742459893E-1,1.911144495E0,-7.362891436E-1,2.127052759E0
2.997693875E0,5.724133849E-1,1.809740901E0,-7.271261811E-1,2.032616957E0
3.000138875E0,5.705807805E-1,1.669852853E0,-7.259044051E-1,1.908116396E0
3.002583094E0,5.620287061E-1,1.504308581E0,-7.320130467E-1,1.764840977E0
3.005028094E0,5.382049680E-1,1.338764191E0,-7.478955388E-1,1.625208258E0
3.007473875E0,5.021639466E-1,1.173830748E0,-7.674432397E-1,1.489636325E0
3.009918875E0,4.581816792E-1,1.007675529E0,-7.937104106E-1,1.362100084E0
3.012363094E0,4.178646207E-1,8.341899514E-1,-8.175341487E-1,1.240502237E0
3.014808094E0,3.848779202E-1,6.381023526E-1,-8.438013196E-1,1.125746993E0
3.017253927E0,3.567781448E-1,4.407930374E-1,-8.682358861E-1,1.037025892E0
3.019698927E0,3.201262653E-1,2.666965723E-1,-8.914487362E-1,9.840166343E-1
3.022143146E0,2.798092067E-1,1.139804125E-1,-9.146616459E-1,9.632708098E-1
3.024588146E0,2.474333644E-1,-2.651847154E-2,-9.329875708E-1,9.656046325E-1
3.027033927E0,2.242205143E-1,-1.657956243E-1,-9.507026672E-1,9.907565743E-1
3.029478927E0,2.138358206E-1,-3.062945306E-1,-9.659742713E-1,1.035687400E0
3.031923146E0,2.175009996E-1,-4.480151534E-1,-9.788024426E-1,1.098216046E0
3.034368146E0,2.223879248E-1,-5.811836123E-1,-9.897980094E-1,1.169158193E0
3.036813927E0,2.254422456E-1,-7.009131312E-1,-9.983500838E-1,1.240486321E0
3.039258927E0,2.211661935E-1,-7.968188524E-1,-1.005069733E0,1.301537528E0
3.041703146E0,2.022293955E-1,-8.579053283E-1,-1.012400150E0,1.342330937E0
3.044148146E0,1.661883742E-1,-8.768421412E-1,-1.021563053E0,1.356488772E0
3.046593979E0,1.270930320E-1,-8.750095367E-1,-1.035002112E0,1.361258132E0
3.049038979E0,9.044113755E-2,-8.682900667E-1,-1.052106261E0,1.367126484E0
3.051483198E0,6.600654870E-2,-8.713443875E-1,-1.077762604E0,1.387505004E0
3.053928198E0,6.234135479E-2,-9.079962373E-1,-1.108305812E0,1.434114843E0
3.056373979E0,7.516951859E-2,-9.721370339E-1,-1.144346833E0,1.503406314E0
3.058818979E0,8.249989897E-2,-1.034445286E0,-1.185274839E0,1.575360190E0
3.061263198E0,7.639124990E-2,-1.089423060E0,-1.237809181E0,1.650711906E0
3.063708198E0,6.234135479E-2,-1.150509596E0,-1.300117373E0,1.737200034E0
3.066153979E0,4.768060520E-2,-1.234808922E0,-1.365479946E0,1.841619395E0
3.068598979E0,3.179812431E-2,-1.337434173E0,-1.435729384E0,1.962411820E0
3.071043198E0,6.752669811E-3,-1.446168065E0,-1.505367875E0,2.087481763E0
3.073488198E0,-2.134710923E-2,-1.550625920E0,-1.571952224E0,2.208150864E0
3.075934031E0,-5.066861212E-2,-1.647753477E0,-1.631206036E0,2.319157597E0
3.078379031E0,-7.632493228E-2,-1.733885407E0,-1.679464340E0,2.415115851E0
3.080823250E0,-9.465087205E-2,-1.797415257E0,-1.711840153E0,2.483959964E0
3.083268250E0,-1.013703868E-1,-1.829180241E0,-1.730777025E0,2.520270902E0
3.085714031E0,-9.526173770E-2,-1.824904203E0,-1.734442234E0,2.519452324E0
3.088159031E0,-6.777282804E-2,-1.793139219E0,-1.718559742E0,2.484630557E0
3.090603250E0,-1.707105339E-2,-1.737550497E0,-1.689238191E0,2.423406449E0
3.093048250E0,4.768060520E-2,-1.653251171E0,-1.643423319E0,2.331598825E0
3.095494031E0,1.240386888E-1,-1.531689167E0,-1.584780335E0,2.207484091E0
3.097939083E0,1.991750598E-1,-1.367366552E0,-1.518806934E0,2.053323281E0
3.100383250E0,2.700353563E-1,-1.159061670E0,-1.440616250E0,1.868613986E0
3.102828302E0,3.360087574E-1,-9.214352965E-1,-1.358149529E0,1.675265660E0
3.105274083E0,4.038147330E-1,-6.770893931E-1,-1.273850203E0,1.498068998E0
3.107719083E0,4.765076339E-1,-4.522911906E-1,-1.186496496E0,1.356245104E0
3.110163302E0,5.534765720E-1,-2.562036216E-1,-1.098532081E0,1.256482926E0
3.112608302E0,6.292238235E-1,-9.615704417E-2,-1.011178374E0,1.194843296E0
3.115054083E0,7.019166946E-1,2.968108095E-2,-9.256572127E-1,1.162071120E0
3.117499083E0,7.666683793E-1,1.237542480E-1,-8.395252824E-1,1.143633778E0
3.119943302E0,8.210353255E-1,1.940036863E-1,-7.552259564E-1,1.132299731E0
3.122388302E0,8.631849885E-1,2.483706623E-1,-6.709265709E-1,1.121123889E0
3.124834136E0,8.906739354E-1,2.929637730E-1,-5.884598494E-1,1.106983661E0
3.127279136E0,9.053346515E-1,3.320591152E-1,-5.096583366E-1,1.090708810E0
3.129723354E0,9.047238231E-1,3.723761737E-1,-4.369654357E-1,1.071507351E0
3.132168354E0,8.918956518E-1,4.181910157E-1,-3.697703183E-1,1.052184237E0
3.134614136E0,8.680719137E-1,4.664493501E-1,-3.117381632E-1,1.033588180E0
3.137059136E0,8.338634968E-1,5.159294009E-1,-2.647015750E-1,1.015666482E0
3.139503354E0,7.941572666E-1,5.519704223E-1,-2.243845016E-1,9.928270321E-1
3.141948354E0,7.630031705E-1,5.538030267E-1,-1.877326220E-1,9.613090907E-1
3.144394136E0,7.428446412E-1,5.116533637E-1,-1.547459215E-1,9.151795593E-1
3.146839136E0,7.287947536E-1,4.383495748E-1,-1.229809672E-1,8.593116203E-1
3.149283354E0,7.147448659E-1,3.424437940E-1,-8.632908762E-2,7.972331445E-1
3.151728354E0,6.951972246E-1,2.349316329E-1,-4.234682396E-2,7.350410238E-1
3.154174188E0,6.689299941E-1,1.213107854E-1,9.576676413E-3,6.799083441E-1
3.156619188E0,6.383867860E-1,1.502032764E-2,6.883055717E-2,6.422623641E-1
3.159063406E0,6.047891974E-1,-7.660937309E-2,1.311387420E-1,6.235674294E-1
3.161508406E0,5.705807805E-1,-1.480805427E-1,2.001664788E-1,6.225406761E-1
3.163954188E0,5.369832516E-1,-1.957280040E-1,2.685832977E-1,6.315041186E-1
3.166399188E0,5.076617599E-1,-2.238277793E-1,3.339458406E-1,6.475640213E-1
3.168843406E0,4.795619547E-1,-2.299364209E-1,3.925888538E-1,6.610419308E-1
3.171288406E0,4.569599628E-1,-2.244386375E-1,4.439014792E-1,6.754506887E-1
3.173734188E0,4.349688292E-1,-2.103887498E-1,4.860511422E-1,6.853517500E-1
3.176179188E0,4.123668373E-1,-1.957280040E-1,5.190379024E-1,6.911991060E-1
3.178623406E0,3.879322410E-1,-1.865650266E-1,5.440833569E-1,6.937756352E-1
3.181068406E0,3.579998910E-1,-1.847324371E-1,5.605766773E-1,6.903160193E-1
3.183514240E0,3.274566531E-1,-2.061126977E-1,5.703505278E-1,6.892097129E-1
3.185959240E0,2.993568778E-1,-2.507058382E-1,5.764591694E-1,6.962565128E-1
3.188403458E0,2.767548561E-1,-3.270639181E-1,5.764591694E-1,7.182403712E-1
3.190848458E0,2.578180730E-1,-4.254131615E-1,5.727939606E-1,7.586431559E-1
3.193294240E0,2.401030064E-1,-5.335361958E-1,5.672962070E-1,8.149449750E-1
3.195739240E0,2.199444622E-1,-6.318854094E-1,5.599657893E-1,8.724771758E-1
3.198183458E0,1.997859329E-1,-7.112978101E-1,5.538571477E-1,9.233724783E-1
3.200628458E0,1.784056574E-1,-7.613887191E-1,5.465267897E-1,9.540612622E-1
3.203074240E0,1.564145386E-1,-7.760494947E-1,5.379746556E-1,9.571494430E-1
3.205519240E0,1.393103153E-1,-7.540583611E-1,5.336986184E-1,9.342620570E-1
3.207963458E0,1.283147633E-1,-6.960262060E-1,5.306442976E-1,8.845905994E-1
3.210408458E0,1.295364797E-1,-6.062290668E-1,5.269790888E-1,8.136340339E-1
3.212854292E0,1.411429197E-1,-4.864996374E-1,5.269790888E-1,7.309652392E-1
3.215299292E0,1.686318219E-1,-3.411138058E-1,5.282008648E-1,6.509926831E-1
3.217743511E0,1.997859329E-1,-1.712934077E-1,5.330877900E-1,5.945068901E-1
3.220188511E0,2.523202896E-1,1.929638349E-2,5.416398644E-1,5.978391270E-1
3.222634292E0,2.895830274E-1,2.166056782E-1,5.520245433E-1,6.599298796E-1
3.225079292E0,3.500586450E-1,4.212453663E-1,5.666853189E-1,7.881122790E-1
3.227523511E0,3.928191662E-1,6.100025773E-1,5.819569230E-1,9.300988667E-1
3.229968511E0,4.490187168E-1,7.938728333E-1,5.978394151E-1,1.090533745E0
3.232414292E0,4.850597382E-1,9.563629031E-1,6.143327951E-1,1.235846971E0
3.234859344E0,5.186573267E-1,1.112133384E0,6.302152276E-1,1.379498938E0
3.237303511E0,5.455353260E-1,1.244691014E0,6.467086077E-1,1.505023766E0
3.239748511E0,5.614178181E-1,1.358311892E0,6.650345325E-1,1.613217930E0
3.242194344E0,5.803546309E-1,1.459715366E0,6.858039498E-1,1.714032528E0
3.244639344E0,5.773003101E-1,1.547069073E0,7.108494043E-1,1.797777862E0
3.247083563E0,5.901284814E-1,1.635033607E0,7.407817841E-1,1.889535439E0
3.249528563E0,5.815763474E-1,1.701007009E0,7.719358802E-1,1.956410206E0
3.251974344E0,5.962371230E-1,1.760260820E0,8.085877299E-1,2.026778473E0
3.254419344E0,6.054000854E-1,1.778586745E0,8.489048481E-1,2.061678810E0
3.256863563E0,6.261695027E-1,1.788360596E0,8.934979439E-1,2.094912992E0
3.259308563E0,6.328889728E-1,1.798134446E0,9.393128157E-1,2.125122233E0
3.261754344E0,6.133413315E-1,1.831121206E0,9.790189862E-1,2.165102916E0
3.264199396E0,5.864632726E-1,1.876325130E0,1.020557642E0,2.214965703E0
3.266643563E0,5.369832516E-1,1.897094607E0,1.057209611E0,2.237188218E0
3.269088615E0,5.076617599E-1,1.892818451E0,1.090196252E0,2.242545433E0
3.271534396E0,4.422992170E-1,1.864718676E0,1.114630818E0,2.217026431E0
3.273979396E0,3.787692785E-1,1.843338490E0,1.132956862E0,2.196577840E0
3.276423615E0,2.889721692E-1,1.795080185E0,1.140897989E0,2.146500875E0
3.278868615E0,2.046728432E-1,1.738269687E0,1.142730594E0,2.090288422E0
3.281314396E0,1.215952411E-1,1.655802965E0,1.137843728E0,2.012748671E0
3.283759396E0,3.485244513E-2,1.570281982E0,1.127459049E0,1.933433243E0
3.286203615E0,-4.028391466E-2,1.499421597E0,1.117074370E0,1.870225405E0
3.288648615E0,-1.276375651E-1,1.440778613E0,1.103024483E0,1.819009997E0
3.291094448E0,-1.832262576E-1,1.401072383E0,1.093250632E0,1.786553282E0
3.293539448E0,-2.430909872E-1,1.352814078E0,1.086531043E0,1.752069880E0
3.295983615E0,-2.663038671E-1,1.317383885E0,1.084087610E0,1.726749547E0
3.298428667E0,-3.047883511E-1,1.295392752E0,1.084698439E0,1.716831099E0
3.300874448E0,-3.322772682E-1,1.310664415E0,1.092028856E0,1.738038094E0
3.303319448E0,-3.603770435E-1,1.327157736E0,1.104856968E0,1.764065812E0
3.305763667E0,-3.848116100E-1,1.335098982E0,1.123793840E0,1.787031578E0
3.308208667E0,-3.884768188E-1,1.328379512E0,1.151282787E0,1.800266209E0
3.310654448E0,-4.135222733E-1,1.313107848E0,1.181215167E0,1.813979648E0
3.313099448E0,-4.306264818E-1,1.312497020E0,1.219088674E0,1.842353057E0
3.315543667E0,-4.788847864E-1,1.297836304E0,1.258184075E0,1.869956384E0
3.317988667E0,-5.118714571E-1,1.275845170E0,1.299722910E0,1.891843791E0
3.320434500E0,-5.601298213E-1,1.242858410E0,1.340650797E0,1.912011246E0
3.322879500E0,-6.230488420E-1,1.201930523E0,1.379135251E0,1.932573642E0
3.325323719E0,-6.902439594E-1,1.146341801E0,1.411511064E0,1.944967797E0
3.327768719E0,-7.574390769E-1,1.073648930E0,1.435945749E0,1.946375137E0
3.330214500E0,-8.221907616E-1,9.765213728E-1,1.451217294E0,1.932776054E0
3.332659500E0,-8.802229166E-1,8.641223311E-1,1.454882503E0,1.907402129E0
3.335103719E0,-9.352007508E-1,7.413384914E-1,1.453660727E0,1.880774498E0
3.337548719E0,-9.865133762E-1,6.155003905E-1,1.443886995E0,1.853876756E0
3.339994500E0,-1.035382509E0,4.957708418E-1,1.428615332E0,1.832688581E0
3.342439500E0,-1.078753948E0,3.809282780E-1,1.406013370E0,1.812647243E0
3.344883719E0,-1.119071007E0,2.776921391E-1,1.382189631E0,1.799966950E0
3.347328719E0,-1.153890252E0,1.762886196E-1,1.354089856E0,1.787763891E0
3.349774552E0,-1.179546595E0,7.060901821E-2,1.322935700E0,1.773830508E0
3.352219552E0,-1.188098788E0,-5.400738493E-2,1.295446873E0,1.758601185E0
3.354663771E0,-1.186266184E0,-1.951171309E-1,1.265514493E0,1.745515708E0
3.357108771E0,-1.173437953E0,-3.478333354E-1,1.236803770E0,1.740008110E0
3.359554552E0,-1.154501200E0,-5.182645321E-1,1.208703995E0,1.749981855E0
3.361999552E0,-1.134953499E0,-7.070217729E-1,1.183658600E0,1.785790277E0
3.364443771E0,-1.132510066E0,-8.872268796E-1,1.158002257E0,1.846813421E0
3.366888771E0,-1.151446819E0,-1.048495173E0,1.131124258E0,1.924737383E0
3.369334552E0,-1.189320445E0,-1.206709146E0,1.104246140E0,2.022372276E0
3.371779604E0,-1.231470108E0,-1.378973007E0,1.072481155E0,2.137358419E0
3.374223771E0,-1.268732905E0,-1.582390904E0,1.035829306E0,2.277407849E0
3.376668771E0,-1.287669659E0,-1.818184733E0,9.912363291E-1,2.438532004E0
3.379114604E0,-1.286448002E0,-2.088186979E0,9.405345321E-1,2.626800055E0
3.381559604E0,-1.267511129E0,-2.375904083E0,8.843349814E-1,2.834352313E0
3.384003823E0,-1.234524488E0,-2.667286634E0,8.226376176E-1,3.052081479E0
3.386448823E0,-1.190542221E0,-2.948895216E0,7.566642761E-1,3.268931722E0
3.388894604E0,-1.151446819E0,-3.194463015E0,6.882473826E-1,3.464694530E0
3.391339604E0,-1.122736216E0,-3.389939547E0,6.143327951E-1,3.623483341E0
3.393783823E0,-1.103188515E0,-3.530438423E0,5.385855436E-1,3.737792764E0
3.396228823E0,-1.098912477E0,-3.602520466E0,4.567296505E-1,3.793990553E0
3.398674604E0,-1.101355910E0,-3.603742361E0,3.638782203E-1,3.785809188E0
3.401119656E0,-1.105021119E0,-3.527995110E0,2.588094771E-1,3.706049583E0
3.403563823E0,-1.097690701E0,-3.378944159E0,1.445777863E-1,3.555712480E0
3.406008875E0,-1.062260628E0,-3.179191351E0,1.690705307E-2,3.352005539E0
3.408454656E0,-9.926220179E-1,-2.940343142E0,-1.168723255E-1,3.105571671E0
3.410899656E0,-8.936619163E-1,-2.655069351E0,-2.549277544E-1,2.813007828E0
3.413343875E0,-7.788193822E-1,-2.318482876E0,-3.972592354E-1,2.477849345E0
3.415788875E0,-6.499269009E-1,-1.940968513E0,-5.371472239E-1,2.116197270E0
3.418234656E0,-5.100389123E-1,-1.530467391E0,-6.684831381E-1,1.746235904E0
3.420679656E0,-3.615987599E-1,-1.102251291E0,-7.839365602E-1,1.400095748E0
3.423123875E0,-2.149912119E-1,-6.618177891E-1,-8.828966618E-1,1.124157695E0
3.425568875E0,-7.021628320E-2,-2.189408541E-1,-9.604764581E-1,9.876135127E-1
3.428014708E0,7.150433213E-2,2.086644471E-1,-1.017897844E0,1.041522800E0
3.430459708E0,2.089488953E-1,6.051156521E-1,-1.056382298E0,1.235219881E0
3.432903927E0,3.396739364E-1,9.618606567E-1,-1.079595208E0,1.485287891E0
3.435348875E0,4.600142837E-1,1.272790790E0,-1.088758230E0,1.736952509E0
3.437794708E0,5.687482357E-1,1.532408357E0,-1.083260417E0,1.960918932E0
3.440239708E0,6.591562033E-1,1.737658858E0,-1.069821358E0,2.144402701E0
3.442683927E0,7.324599624E-1,1.884877205E0,-1.051495433E0,2.279232836E0
3.445128927E0,7.868269086E-1,1.978339672E0,-1.030115128E0,2.365176868E0
3.447574708E0,8.247005343E-1,2.024154425E0,-1.006291509E0,2.406232471E0
3.450019708E0,8.497459888E-1,2.022932768E0,-9.818567634E-1,2.403823607E0
3.452463927E0,8.631849885E-1,1.988113403E0,-9.580330253E-1,2.369706840E0
3.454908927E0,8.686828017E-1,1.925194383E0,-9.366527796E-1,2.310476499E0
3.457354761E0,8.680719137E-1,1.837229848E0,-9.177159667E-1,2.229610943E0
3.459799761E0,8.637958765E-1,1.741324067E0,-8.963356614E-1,2.140507052E0
3.462243979E0,8.503568172E-1,1.644807458E0,-8.780097365E-1,2.049243614E0
3.464688979E0,8.326417804E-1,1.547069073E0,-8.651815653E-1,1.958380502E0
3.467134761E0,8.082071543E-1,1.452995896E0,-8.572403193E-1,1.870630066E0
3.469579761E0,7.776639462E-1,1.361977100E0,-8.554077744E-1,1.786467267E0
3.472023979E0,7.422338128E-1,1.261184335E0,-8.633489609E-1,1.699078688E0
3.474468979E0,7.049710155E-1,1.148174405E0,-8.822857738E-1,1.610502028E0
3.476914761E0,6.652648449E-1,1.016838431E0,-9.116073251E-1,1.519067354E0
3.479359761E0,6.188390851E-1,8.635114431E-1,-9.555895329E-1,1.428903489E0
3.481803979E0,5.681373477E-1,6.875823736E-1,-1.012400150E0,1.349260401E0
3.484248979E0,5.131595135E-1,4.835535586E-1,-1.080206037E0,1.289961942E0
3.486694813E0,4.594034255E-1,2.544792891E-1,-1.157785892E0,1.271329772E0
3.489139813E0,3.977060914E-1,1.440946572E-2,-1.244528651E0,1.306609862E0
3.491584031E0,3.219588697E-1,-2.048909664E-1,-1.331882358E0,1.385477692E0
3.494029031E0,2.303291708E-1,-3.930373192E-1,-1.417403460E0,1.488812422E0
3.496474813E0,1.460298300E-1,-5.701880455E-1,-1.493761539E0,1.605541234E0
3.498919813E0,9.532805532E-2,-7.607778311E-1,-1.551182747E0,1.730328946E0
3.501364031E0,8.433248848E-2,-9.586980343E-1,-1.584780335E0,1.854115045E0
3.503809031E0,1.099888086E-1,-1.138903141E0,-1.596997619E0,1.964586291E0
3.506254813E0,1.472515613E-1,-1.256800056E0,-1.585391164E0,2.028470987E0
3.508699865E0,1.771839410E-1,-1.294673562E0,-1.556680560E0,2.032443885E0
3.511144031E0,1.991750598E-1,-1.252523899E0,-1.514530897E0,1.975421641E0
3.513589031E0,2.095597684E-1,-1.142568350E0,-1.458331347E0,1.864432366E0
3.516034865E0,2.095597684E-1,-9.812999964E-1,-1.397855759E0,1.720716624E0
3.518479865E0,2.095597684E-1,-7.943754196E-1,-1.330049753E0,1.563323367E0
3.520924083E0,2.132249475E-1,-6.037856340E-1,-1.264687181E0,1.417552692E0
3.523369083E0,2.248313874E-1,-4.357978404E-1,-1.198102951E0,1.294573131E0
3.525814865E0,2.529311478E-1,-3.148466349E-1,-1.133351326E0,1.203157428E0
3.528259865E0,2.926373482E-1,-2.507058382E-1,-1.072875738E0,1.139979116E0
3.530704083E0,3.347870111E-1,-2.281038314E-1,-1.014232635E0,1.092145384E0
3.533149083E0,3.726606369E-1,-2.415428609E-1,-9.574221373E-1,1.055403266E0
3.535594865E0,3.958734870E-1,-2.769730091E-1,-9.024443030E-1,1.023638406E0
3.538039917E0,4.044255912E-1,-3.270639181E-1,-8.492990732E-1,9.959115328E-1
3.540484083E0,3.940408826E-1,-3.844852149E-1,-7.955430150E-1,9.674635840E-1
3.542929083E0,3.702171743E-1,-4.467934072E-1,-7.393434644E-1,9.398477872E-1
3.545374917E0,3.402847946E-1,-5.139884949E-1,-6.831439137E-1,9.201432069E-1
3.547819917E0,3.115741611E-1,-5.787401795E-1,-6.275551915E-1,9.087596886E-1
3.550264136E0,2.865287066E-1,-6.349397302E-1,-5.683013201E-1,8.990069805E-1
3.552709136E0,2.669810355E-1,-6.746459007E-1,-5.072148442E-1,8.852642898E-1
3.555154917E0,2.565963268E-1,-6.941936016E-1,-4.473501444E-1,8.647939542E-1
3.557599917E0,2.559854686E-1,-6.978588104E-1,-3.862636685E-1,8.376963060E-1
3.560044136E0,2.657592893E-1,-6.886957884E-1,-3.270097971E-1,8.073817537E-1
3.562489136E0,2.871395648E-1,-6.715915799E-1,-2.689776421E-1,7.783529738E-1
3.564934969E0,3.170719445E-1,-6.508222222E-1,-2.176649868E-1,7.559644366E-1
3.567379969E0,3.500586450E-1,-6.245549917E-1,-1.669632196E-1,7.351780120E-1
3.569824136E0,3.824344575E-1,-5.860705376E-1,-1.211483628E-1,7.102194838E-1
3.572269188E0,4.056473374E-1,-5.353688002E-1,-8.327476680E-2,6.768339540E-1
3.574714969E0,4.270275831E-1,-4.858887494E-1,-5.273152515E-2,6.490154445E-1
3.577159969E0,4.490187168E-1,-4.443499446E-1,-2.829693630E-2,6.323491108E-1
3.579604188E0,4.740641713E-1,-4.168610573E-1,-1.119272411E-2,6.313756858E-1
3.582049188E0,4.997205138E-1,-4.034220278E-1,1.635434572E-3,6.422402970E-1
3.584494969E0,5.217116475E-1,-3.918156028E-1,9.576676413E-3,6.525290970E-1
3.586939969E0,5.345397592E-1,-3.765439689E-1,1.324186474E-2,6.539827686E-1
3.589384188E0,5.382049680E-1,-3.576071560E-1,1.446359418E-2,6.463409790E-1
3.591829188E0,5.320963264E-1,-3.343943059E-1,1.202013530E-2,6.285622770E-1
3.594275021E0,5.235441923E-1,-3.142357767E-1,6.522352342E-3,6.106432557E-1
3.596720021E0,5.107160807E-1,-3.007967472E-1,-2.029754221E-3,5.927172328E-1
3.599164240E0,4.984987974E-1,-2.983532846E-1,-9.360130876E-3,5.810364408E-1
3.601609240E0,4.844488800E-1,-3.032402098E-1,-1.607964188E-2,5.717551023E-1
3.604055021E0,4.679555297E-1,-3.124031723E-1,-2.341002040E-2,5.631395465E-1
3.606500021E0,4.484078586E-1,-3.215661347E-1,-2.402088419E-2,5.523145748E-1
3.608944240E0,4.245841205E-1,-3.301182687E-1,-2.463174798E-2,5.383831997E-1
3.611389240E0,3.983169496E-1,-3.417246938E-1,-1.913396642E-2,5.251649906E-1
3.613835021E0,3.720497787E-1,-3.606614769E-1,-1.180358976E-2,5.183020967E-1
3.616280021E0,3.451717198E-1,-3.857069314E-1,-1.418889035E-3,5.176054156E-1
3.618724240E0,3.182936609E-1,-4.138067067E-1,1.568532176E-2,5.222957729E-1
3.621169240E0,2.938590944E-1,-4.461825490E-1,3.645472229E-2,5.355006827E-1
3.623615073E0,2.737005353E-1,-4.877213538E-1,6.333277375E-2,5.628455758E-1
3.626060073E0,2.608723938E-1,-5.353688002E-1,9.387600422E-2,6.028987164E-1
3.628504292E0,2.504876852E-1,-5.805727839E-1,1.280844212E-1,6.451468491E-1
3.630949292E0,2.419355959E-1,-6.184463501E-1,1.659580469E-1,6.845077018E-1
3.633395073E0,2.284965664E-1,-6.465461254E-1,2.044425309E-1,7.155622416E-1
3.635840073E0,2.132249475E-1,-6.630395055E-1,2.423161417E-1,7.374302520E-1
3.638284292E0,1.936772764E-1,-6.703698635E-1,2.814114690E-1,7.523955450E-1
3.640729292E0,1.747404784E-1,-6.703698635E-1,3.168416321E-1,7.617864586E-1
3.643175073E0,1.527493447E-1,-6.642612219E-1,3.479957283E-1,7.652949497E-1
3.645620125E0,1.338125318E-1,-6.550982594E-1,3.736520410E-1,7.659473682E-1
3.648064292E0,1.105996743E-1,-6.428809762E-1,3.944214582E-1,7.622968741E-1
3.650509292E0,9.166286886E-2,-6.312745214E-1,4.048061371E-1,7.554982538E-1
3.652955125E0,7.394778728E-2,-6.233332753E-1,4.066387415E-1,7.479088938E-1
3.655400125E0,5.989789963E-2,-6.172246337E-1,3.986974955E-1,7.372338162E-1
3.657844344E0,4.645887762E-2,-6.129485965E-1,3.834258914E-1,7.244859029E-1
3.660289344E0,3.607417643E-2,-6.147812009E-1,3.602130115E-1,7.134498474E-1
3.662735125E0,3.301985189E-2,-6.221115589E-1,3.315023780E-1,7.056960599E-1
3.665180125E0,3.179812431E-2,-6.263875961E-1,3.003482819E-1,6.954003392E-1
3.667624344E0,3.424158320E-2,-6.105051041E-1,2.673615813E-1,6.673613588E-1
3.670069344E0,3.607417643E-2,-5.683554411E-1,2.349857688E-1,6.160743179E-1
3.672515125E0,4.096109420E-2,-4.974951744E-1,2.026099414E-1,5.387300327E-1
3.674960177E0,5.134579539E-2,-3.948699236E-1,1.745101660E-1,4.347556156E-1
3.677404344E0,6.539568305E-2,-2.580361962E-1,1.549624950E-1,3.080140399E-1
3.679849396E0,8.372162282E-2,-9.188099205E-2,1.378582716E-1,1.856241630E-1
3.682295177E0,1.105996743E-1,9.870879352E-2,1.280844212E-1,1.959115433E-1
3.684740177E0,1.423646510E-1,3.161766231E-1,1.250301003E-1,3.686026001E-1
3.687184396E0,1.814599931E-1,5.489161015E-1,1.286952943E-1,5.922829512E-1
3.689629396E0,2.254422456E-1,7.877641916E-1,1.378582716E-1,8.309040443E-1
3.692075177E0,2.749222815E-1,1.023558021E0,1.537407637E-1,1.070929272E0
3.694520177E0,3.262349069E-1,1.255075693E0,1.769536138E-1,1.308799752E0
3.696964396E0,3.720497787E-1,1.476208806E0,2.087185830E-1,1.536612158E0
3.699409396E0,4.172537625E-1,1.679015875E0,2.472030669E-1,1.747656822E0
3.701855229E0,4.587925673E-1,1.857388377E0,2.917961776E-1,1.935336460E0
3.704300229E0,5.003313422E-1,1.996665478E0,3.424979448E-1,2.086698187E0
3.706744396E0,5.430918932E-1,2.100512505E0,3.980866373E-1,2.205804741E0
3.709189448E0,5.705807805E-1,2.184811831E0,4.561187923E-1,2.303694753E0
3.711635229E0,5.705807805E-1,2.277663231E0,5.153726935E-1,2.403938692E0
3.714080229E0,5.418701768E-1,2.385786295E0,5.697396398E-1,2.512011702E0
3.716524448E0,4.856705964E-1,2.496963739E0,6.210522652E-1,2.618474701E0
3.718969448E0,4.166429043E-1,2.594702005E0,6.662562490E-1,2.711082292E0
3.721415229E0,3.421173990E-1,2.664340734E0,7.022972703E-1,2.776504515E0
3.723860229E0,2.724788189E-1,2.695494652E0,7.303970456E-1,2.805960792E0
3.726304448E0,2.168901414E-1,2.679001331E0,7.487230301E-1,2.790103160E0
3.728749448E0,1.839034408E-1,2.598367214E0,7.548316717E-1,2.712029408E0
3.731195281E0,1.710752845E-1,2.463977098E0,7.548316717E-1,2.582677051E0
3.733640281E0,1.655775011E-1,2.301486969E0,7.505556345E-1,2.426436057E0
3.736084500E0,1.545819342E-1,2.142051220E0,7.413926125E-1,2.271990759E0
3.738529500E0,1.313690841E-1,2.000941515E0,7.328405380E-1,2.134966050E0
3.740975281E0,8.921940625E-2,1.883044720E0,7.273427248E-1,2.020605097E0
3.743420281E0,2.630034089E-2,1.790804029E0,7.224558592E-1,1.931220662E0
3.745864500E0,-5.066861212E-2,1.710780859E0,7.230666876E-1,1.857999971E0
3.748309500E0,-1.319136173E-1,1.628314018E0,7.206232548E-1,1.785526707E0
3.750755281E0,-2.101043016E-1,1.534851789E0,7.187906504E-1,1.707797948E0
3.753200281E0,-2.797428966E-1,1.425506949E0,7.096276879E-1,1.616755271E0
3.755644500E0,-3.402184844E-1,1.297836304E0,6.998538375E-1,1.513249180E0
3.758089500E0,-3.915311396E-1,1.154893875E0,6.858039498E-1,1.399072390E0
3.760535333E0,-4.287938774E-1,1.008897185E0,6.662562490E-1,1.282823101E0
3.762980333E0,-4.642240405E-1,8.696200848E-1,6.436542869E-1,1.177299407E0
3.765424552E0,-4.990433455E-1,7.419493794E-1,6.155545115E-1,1.085559993E0
3.767869552E0,-5.369169116E-1,6.313828230E-1,5.874547362E-1,1.015887349E0
3.770315333E0,-5.784557462E-1,5.409748554E-1,5.550789237E-1,9.671491385E-1
3.772760333E0,-6.212162971E-1,4.701145589E-1,5.220922232E-1,9.378153741E-1
3.775204552E0,-6.651985049E-1,4.206344783E-1,4.891054630E-1,9.266318413E-1
3.777649552E0,-7.067373395E-1,3.943673074E-1,4.555079043E-1,9.287037693E-1
3.780095333E0,-7.427783608E-1,3.882586658E-1,4.237429500E-1,9.391605680E-1
3.782540386E0,-7.720998526E-1,4.065845907E-1,3.950323164E-1,9.578620687E-1
3.784984552E0,-7.959235907E-1,4.554537833E-1,3.687651157E-1,9.883927466E-1
3.787429604E0,-8.099734783E-1,5.293684602E-1,3.455522656E-1,1.027469888E0
3.789875386E0,-8.136386871E-1,6.295502782E-1,3.278371990E-1,1.079730844E0
3.792320386E0,-8.075299859E-1,7.492797375E-1,3.162307739E-1,1.146091927E0
3.794764604E0,-7.916475534E-1,8.848916888E-1,3.082895279E-1,1.226695391E0
3.797209604E0,-7.598825693E-1,1.019892812E0,3.040134609E-1,1.307680026E0
3.799655386E0,-7.097916603E-1,1.141454935E0,3.034026027E-1,1.377961070E0
3.802100386E0,-6.450399756E-1,1.243469238E0,3.082895279E-1,1.434341225E0
3.804544604E0,-5.741797090E-1,1.328379512E0,3.198959529E-1,1.482095775E0
3.806989604E0,-5.057628155E-1,1.393741965E0,3.382218778E-1,1.520758603E0
3.809435438E0,-4.434546232E-1,1.437724233E0,3.663216531E-1,1.548513650E0
3.811880438E0,-3.921419978E-1,1.451774120E0,4.041952789E-1,1.557176055E0
3.814324604E0,-3.567118347E-1,1.431004763E0,4.469558001E-1,1.541034539E0
3.816769656E0,-3.371641636E-1,1.365031362E0,4.933815300E-1,1.490105911E0
3.819215438E0,-3.328881264E-1,1.252632260E0,5.434724689E-1,1.405441001E0
3.821660438E0,-3.444945514E-1,1.095029116E0,5.917307734E-1,1.291476120E0
3.824104656E0,-3.683182895E-1,8.983307481E-1,6.351021528E-1,1.160177245E0
3.826549656E0,-4.068027437E-1,6.759759784E-1,6.699214578E-1,1.035000848E0
3.828995438E0,-4.513958693E-1,4.310191870E-1,6.943560243E-1,9.336305794E-1
3.831440438E0,-4.935455322E-1,1.689582318E-1,7.059624791E-1,8.777910334E-1
3.833884656E0,-5.246996284E-1,-1.083743423E-1,7.065733671E-1,8.867359366E-1
3.836329656E0,-5.436364412E-1,-3.875395358E-1,6.931343079E-1,9.623734414E-1
3.838775490E0,-5.534102917E-1,-6.520439386E-1,6.662562490E-1,1.084122520E0
3.841220490E0,-5.558537245E-1,-8.878377080E-1,6.277717948E-1,1.221198831E0
3.843664708E0,-5.540211797E-1,-1.090644836E0,5.752374530E-1,1.351792793E0
3.846109708E0,-5.479124784E-1,-1.259243488E0,5.098748803E-1,1.464880418E0
3.848555490E0,-5.424147248E-1,-1.386303306E0,4.329059124E-1,1.550309039E0
3.851000490E0,-5.363060832E-1,-1.469991803E0,3.443305492E-1,1.602205868E0
3.853444708E0,-5.308082700E-1,-1.509698033E0,2.441487312E-1,1.618812582E0
3.855889708E0,-5.228670239E-1,-1.509698033E0,1.329713613E-1,1.603202875E0
3.858335490E0,-5.118714571E-1,-1.469380975E0,1.446359418E-2,1.556053352E0
3.860780490E0,-4.904912114E-1,-1.389968514E0,-1.083202213E-1,1.477947012E0
3.863224708E0,-4.623914361E-1,-1.280012846E0,-2.329366058E-1,1.380760004E0
3.865669708E0,-4.263504148E-1,-1.143790007E0,-3.593856096E-1,1.272473289E0
3.868115542E0,-3.780921102E-1,-9.886304140E-1,-4.833911657E-1,1.163619679E0
3.870560542E0,-3.194490969E-1,-8.206425905E-1,-6.043423414E-1,1.068050398E0
3.873004761E0,-2.546974421E-1,-6.496004462E-1,-7.179631591E-1,1.001160639E0
3.875449761E0,-1.795610636E-1,-4.761149287E-1,-8.218101859E-1,9.665917352E-1
3.877895542E0,-1.032029763E-1,-2.995750308E-1,-9.128290415E-1,9.662571668E-1
3.880340542E0,-3.051007912E-2,-1.224242300E-1,-9.922414422E-1,1.000230792E0
3.882784761E0,4.157195985E-2,5.716999620E-2,-1.053938866E0,1.056306664E0
3.885229761E0,1.038801596E-1,2.312664241E-1,-1.100364566E0,1.129193263E0
3.887675542E0,1.600797176E-1,3.980324864E-1,-1.131518722E0,1.210119826E0
3.890120594E0,2.113923579E-1,5.525813103E-1,-1.150455475E0,1.293669445E0
3.892564761E0,2.553746104E-1,6.906367540E-1,-1.159007668E0,1.373132948E0
3.895009761E0,2.950808108E-1,8.042575717E-1,-1.156564116E0,1.439285754E0
3.897455594E0,3.317326903E-1,8.855025768E-1,-1.148622990E0,1.487782297E0
3.899900594E0,3.653302491E-1,9.349825978E-1,-1.137016535E0,1.516728469E0
3.902344813E0,3.940408826E-1,9.484216571E-1,-1.124799252E0,1.523136636E0
3.904789813E0,4.245841205E-1,9.233762026E-1,-1.110749364E0,1.505542904E0
3.907235594E0,4.532947838E-1,8.580136299E-1,-1.095477700E0,1.463466755E0
3.909680594E0,4.771184921E-1,7.602753043E-1,-1.081427813E0,1.405399128E0
3.912124813E0,4.917792380E-1,6.399349570E-1,-1.064934492E0,1.336206960E0
3.914569813E0,4.942227006E-1,5.055447221E-1,-1.047830224E0,1.264033118E0
3.917015646E0,4.875032008E-1,3.681001365E-1,-1.025228262E0,1.193419486E0
3.919460646E0,4.728424549E-1,2.306555659E-1,-1.002626300E0,1.132272703E0
3.921904813E0,4.496295750E-1,1.084826291E-1,-9.775806665E-1,1.081480095E0
3.924349865E0,4.221406579E-1,9.522547945E-3,-9.537569880E-1,1.043046407E0
3.926795646E0,3.946517706E-1,-7.111158967E-2,-9.293223619E-1,1.012149658E0
3.929240646E0,3.781584203E-1,-1.425827742E-1,-9.061095119E-1,9.921532572E-1
3.931684865E0,3.757149577E-1,-2.024475187E-1,-8.847292662E-1,9.822894694E-1
3.934129865E0,3.824344575E-1,-2.464297712E-1,-8.609055281E-1,9.737258725E-1
3.936575646E0,3.915974498E-1,-2.647557259E-1,-8.334166408E-1,9.581374923E-1
3.939020646E0,3.970952332E-1,-2.580361962E-1,-8.089820147E-1,9.374002362E-1
3.941464865E0,4.019821286E-1,-2.299364209E-1,-7.851582766E-1,9.115557628E-1
3.943909865E0,4.007604122E-1,-1.902302206E-1,-7.674432397E-1,8.864341887E-1
3.946355698E0,3.964843452E-1,-1.523566097E-1,-7.595019937E-1,8.702043730E-1
3.948800698E0,3.915974498E-1,-1.248676926E-1,-7.607237101E-1,8.646624002E-1
3.951244865E0,3.879322410E-1,-1.163155884E-1,-7.704975605E-1,8.704523137E-1
3.953689917E0,3.903757036E-1,-1.376958489E-1,-7.863800526E-1,8.886770639E-1
3.956135698E0,4.001495540E-1,-1.859541684E-1,-8.053168654E-1,9.182776661E-1
3.958580698E0,4.129776955E-1,-2.592579424E-1,-8.260862231E-1,9.592620631E-1
3.961024917E0,4.233624041E-1,-3.521093726E-1,-8.444122076E-1,1.008091619E0
3.963469917E0,4.306927919E-1,-4.571781158E-1,-8.602946401E-1,1.065183073E0
3.965915698E0,4.288601875E-1,-5.659120083E-1,-8.743445277E-1,1.126346223E0
3.968360698E0,4.203080833E-1,-6.758676767E-1,-8.853400946E-1,1.190496990E0
3.970804917E0,4.032038748E-1,-7.858232856E-1,-8.963356614E-1,1.258375627E0
3.973249917E0,3.824344575E-1,-8.915029168E-1,-9.061095119E-1,1.327429099E0
3.975695750E0,3.579998910E-1,-9.971824884E-1,-9.177159667E-1,1.401691633E0
3.978140750E0,3.366196156E-1,-1.103472948E0,-9.323766828E-1,1.483337990E0
3.980584969E0,3.152393401E-1,-1.217704654E0,-9.500917792E-1,1.576342239E0
3.983029969E0,2.969134152E-1,-1.330714583E0,-9.708611965E-1,1.673777268E0
3.985475750E0,2.779766023E-1,-1.433339953E0,-9.946848750E-1,1.766672696E0
3.987920750E0,2.608723938E-1,-1.530467391E0,-1.018508792E0,1.856810437E0
3.990364969E0,2.468225062E-1,-1.618431926E0,-1.041721582E0,1.940470846E0
3.992809969E0,2.327726185E-1,-1.694790006E0,-1.060047507E0,2.012510117E0
3.995255750E0,2.217770666E-1,-1.756487370E0,-1.075319171E0,2.071411177E0
3.997700750E0,2.138358206E-1,-1.794971824E0,-1.082038641E0,2.106764635E0
4.000144969E0,2.107814997E-1,-1.818795562E0,-1.079595208E0,2.125552152E0
4.002589969E0,2.113923579E-1,-1.820017338E0,-1.066767097E0,2.120174964E0
4.005035802E0,2.162792832E-1,-1.796804428E0,-1.043554187E0,2.089087892E0
4.007480802E0,2.229987830E-1,-1.747935295E0,-1.009345770E0,2.030710500E0
4.009925021E0,2.364378124E-1,-1.688070536E0,-9.684177041E-1,1.960438171E0
4.012370021E0,2.578180730E-1,-1.620264530E0,-9.201593995E-1,1.881069012E0
4.014815802E0,2.883613110E-1,-1.543906450E0,-8.657924533E-1,1.793431333E0
4.017260802E0,3.231805861E-1,-1.462661386E0,-8.059276938E-1,1.700983089E0
4.019705021E0,3.622759283E-1,-1.383249044E0,-7.430086136E-1,1.611422839E0
4.022150021E0,4.001495540E-1,-1.300171375E0,-6.788678169E-1,1.520337720E0
4.024595802E0,4.368014336E-1,-1.214039445E0,-6.141161919E-1,1.428924758E0
4.027040854E0,4.710098505E-1,-1.127296686E0,-5.487536788E-1,1.339320237E0
4.029485021E0,5.027748346E-1,-1.046662569E0,-4.870563447E-1,1.259169945E0
4.031930021E0,5.333180428E-1,-9.751913548E-1,-4.284133315E-1,1.191202878E0
4.034375854E0,5.620287061E-1,-9.110505581E-1,-3.734354973E-1,1.133729887E0
4.036820854E0,5.876849890E-1,-8.517966866E-1,-3.239554763E-1,1.084379266E0
4.039265073E0,6.084544063E-1,-7.955971360E-1,-2.836383879E-1,1.040981413E0
4.041710073E0,6.218934655E-1,-7.448953986E-1,-2.518734336E-1,1.002527238E0
4.044155854E0,6.286129355E-1,-6.954153180E-1,-2.304931432E-1,9.653412745E-1
4.046600854E0,6.267803311E-1,-6.453244090E-1,-2.219410390E-1,9.265824308E-1
4.049045073E0,6.218934655E-1,-5.958443880E-1,-2.225519121E-1,8.895568395E-1
4.051490073E0,6.151739359E-1,-5.524730086E-1,-2.292714268E-1,8.580389174E-1
4.053935906E0,6.145630479E-1,-5.249840617E-1,-2.402669936E-1,8.432225288E-1
4.056380906E0,6.212825775E-1,-5.127667785E-1,-2.530951500E-1,8.443808176E-1
4.058825125E0,6.298346519E-1,-5.091015697E-1,-2.628690004E-1,8.514553473E-1
4.061270125E0,6.377758980E-1,-5.078798532E-1,-2.677559257E-1,8.581336010E-1
4.063715906E0,6.438845396E-1,-4.987169206E-1,-2.665341794E-1,8.569401006E-1
4.066160906E0,6.457171440E-1,-4.828344285E-1,-2.561494708E-1,8.459859732E-1
4.068605125E0,6.475497484E-1,-4.583998322E-1,-2.414887100E-1,8.293177196E-1
4.071050125E0,6.512149572E-1,-4.241914153E-1,-2.213301808E-1,8.080880684E-1
4.073495906E0,6.567127109E-1,-3.789874315E-1,-1.968955845E-1,7.833715141E-1
4.075940906E0,6.628213525E-1,-3.246204853E-1,-1.736827344E-1,7.582059727E-1
4.078385125E0,6.683191657E-1,-2.635339797E-1,-1.498590112E-1,7.338653752E-1
4.080830125E0,6.732060909E-1,-1.938954145E-1,-1.290896088E-1,7.123664785E-1
4.083275958E0,6.762604117E-1,-1.260894239E-1,-1.132071316E-1,6.971675136E-1
4.085720958E0,6.787038445E-1,-6.561380625E-2,-9.915724397E-2,6.890400853E-1
4.088165177E0,6.817581654E-1,-1.369031332E-2,-8.816167712E-2,6.875711614E-1
4.090610177E0,6.835907698E-1,2.296156995E-2,-7.899871469E-2,6.885233265E-1
4.093055958E0,6.829798818E-1,5.167221278E-2,-6.983573735E-2,6.884828006E-1
4.095500958E0,6.805364490E-1,7.549594343E-2,-6.067277119E-2,6.873941235E-1
